{"resourceType":"Bundle","identifier":{"value":"123"},"type":"message","timestamp":"2023-05-24T19:33:06.472Z","entry":[{"fullUrl":"MessageHeader/5db534ea-5e97-4861-ba18-d74acc46db15","resource":{"resourceType":"MessageHeader","id":"5db534ea-5e97-4861-ba18-d74acc46db15","meta":{"tag":[{"system":"http://terminology.hl7.org/CodeSystem/v2-0103","code":"P","display":"Production"}]},"eventCoding":{"system":"http://terminology.hl7.org/CodeSystem/v2-0003","code":"R01","display":"ORU/ACK - Unsolicited transmission of an observation message"},"destination":[{"name":"PRIME ReportStream","endpoint":"https://prime.cdc.gov/api/reports?option=SkipInvalidItems"}],"sender":{"reference":"Organization/12345000-0000-0000-0000-000000000000"},"source":{"extension":[{"url":"https://reportstream.cdc.gov/fhir/StructureDefinition/software-binary-id","valueString":"short-commit-id"},{"url":"https://reportstream.cdc.gov/fhir/StructureDefinition/software-install-date","valueInstant":"2023-02-08T21:33:06Z"},{"url":"https://reportstream.cdc.gov/fhir/StructureDefinition/software-vendor-org","valueReference":{"reference":"Organization/07640c5d-87cd-488b-9343-a226c5166539"}}],"software":"PRIME SimpleReport","version":"short-commit-id","endpoint":"https://simplereport.gov"},"focus":[{"reference":"Provenance/5db534ea-5e97-4861-ba18-d74acc46db15"},{"reference":"DiagnosticReport/123"}]}},{"fullUrl":"Provenance/5db534ea-5e97-4861-ba18-d74acc46db15","resource":{"resourceType":"Provenance","id":"5db534ea-5e97-4861-ba18-d74acc46db15","recorded":"2023-05-24T19:33:06.472Z","activity":{"coding":[{"system":"http://terminology.hl7.org/CodeSystem/v2-0003","code":"R01","display":"ORU/ACK - Unsolicited transmission of an observation message"}]},"agent":[{"who":{"reference":"Organization/12345000-0000-0000-0000-000000000000"}}]}},{"fullUrl":"DiagnosticReport/123","resource":{"resourceType":"DiagnosticReport","id":"123","identifier":[{"value":"123"}],"basedOn":[{"reference":"ServiceRequest/5db534ea-5e97-4861-ba18-d74acc46db15"}],"status":"final","code":{"coding":[{"system":"http://loinc.org","code":"94534-5","display":"SARS-CoV-2 (COVID-19) RNA panel - Respiratory specimen by NAA with probe detection"}]},"subject":{"reference":"Patient/1234"},"effectiveDateTime":"2021-12-23T14:00:00-06:00","issued":"2021-12-24T14:00:00-06:00","specimen":[{"reference":"Specimen/5db534ea-5e97-4861-ba18-d74acc46db15"}],"result":[{"reference":"Observation/5db534ea-5e97-4861-ba18-d74acc46db15"}]}},{"fullUrl":"Patient/1234","resource":{"resourceType":"Patient","id":"1234","extension":[{"url":"http://ibm.com/fhir/cdm/StructureDefinition/local-race-cd","valueCodeableConcept":{"coding":[{"system":"http://terminology.hl7.org/CodeSystem/v3-Race","code":"2076-8"}],"text":"Native Hawaiian or Other Pacific Islander"}},{"url":"https://reportstream.cdc.gov/fhir/StructureDefinition/ethnic-group","valueCodeableConcept":{"coding":[{"system":"http://terminology.hl7.org/CodeSystem/v2-0189","code":"N","display":"Not Hispanic or Latino"}],"text":"Not Hispanic or Latino"}}],"identifier":[{"value":"1234"}],"name":[{"family":"Doe","given":["Jane"]}],"telecom":[{"system":"phone","value":"(205) 999 2800","use":"mobile"}],"gender":"female","birthDate":"1962-01-20","address":[{"line":["123 Main St"],"city":"Birmingham","district":"Jefferson","state":"AL","postalCode":"35226","country":"USA"}],"managingOrganization":{"reference":"Organization/12345000-0000-0000-0000-000000000000"}}},{"fullUrl":"Organization/12345000-0000-0000-0000-000000000000","resource":{"resourceType":"Organization","id":"12345000-0000-0000-0000-000000000000","identifier":[{"use":"official","type":{"coding":[{"system":"http://terminology.hl7.org/CodeSystem/v2-0301","code":"CLIA"}]},"value":"01D1058442"}],"name":"My Testing Lab","telecom":[{"system":"phone","value":"(205) 888 2000","use":"work"}],"address":[{"line":["300 North Street"],"city":"Birmingham","state":"AL","postalCode":"35228","country":"USA"}]}},{"fullUrl":"Organization/5db534ea-5e97-4861-ba18-d74acc46db15","resource":{"resourceType":"Organization","id":"5db534ea-5e97-4861-ba18-d74acc46db15","identifier":[{"use":"official","type":{"coding":[{"system":"http://terminology.hl7.org/CodeSystem/v2-0301","code":"CLIA"}]},"value":"01D1058442"}],"name":"My Urgent Care","telecom":[{"system":"phone","value":"(205) 888 2000","use":"work"}],"address":[{"line":["400 Main Street","Suite 100"],"city":"Birmingham","state":"AL","postalCode":"35228","country":"USA"}]}},{"fullUrl":"Practitioner/1013012657","resource":{"resourceType":"Practitioner","id":"1013012657","identifier":[{"system":"http://hl7.org/fhir/sid/us-npi","value":"1013012657"}],"name":[{"family":"Smith MD","given":["John"]}],"telecom":[{"system":"phone","value":"(205) 888 2000","use":"work"}],"address":[{"line":["400 Main Street"],"city":"Birmingham","state":"AL","postalCode":"35228","country":"USA"}]}},{"fullUrl":"Specimen/5db534ea-5e97-4861-ba18-d74acc46db15","resource":{"resourceType":"Specimen","id":"5db534ea-5e97-4861-ba18-d74acc46db15","identifier":[{"value":"5db534ea-5e97-4861-ba18-d74acc46db15"}],"type":{"coding":[{"system":"http://snomed.info/sct","code":"445297001"}],"text":"Nasal swab"},"subject":{"reference":"Patient/1234"},"receivedTime":"2021-12-22T14:00:00-06:00","collection":{"collectedDateTime":"2021-12-21T14:00:00-06:00","bodySite":{"coding":[{"system":"http://snomed.info/sct","code":"87100004"}],"text":"Topography unknown (body structure)"}}}},{"fullUrl":"ServiceRequest/5db534ea-5e97-4861-ba18-d74acc46db15","resource":{"resourceType":"ServiceRequest","id":"5db534ea-5e97-4861-ba18-d74acc46db15","extension":[{"url":"https://reportstream.cdc.gov/fhir/StructureDefinition/order-control","valueCodeableConcept":{"coding":[{"system":"http://terminology.hl7.org/CodeSystem/v2-0119","code":"RE"}]}},{"url":"https://reportstream.cdc.gov/fhir/StructureDefinition/order-effective-date","valueDateTime":"2021-12-20T14:00:00-06:00"}],"status":"completed","intent":"order","code":{"coding":[{"system":"http://loinc.org","code":"94534-5"}]},"subject":{"reference":"Patient/1234"},"requester":{"reference":"PractitionerRole/5db534ea-5e97-4861-ba18-d74acc46db15"},"performer":[{"reference":"Organization/12345000-0000-0000-0000-000000000000"}],"supportingInfo":[{"reference":"Observation/7e5bdd49-f9ca-3c9c-b379-19343eac04be"},{"reference":"Observation/07099f95-8754-3317-8e87-e1c4717c1af1"},{"reference":"Observation/7cae2c8e-cc60-35f6-8980-dd6bc9e1f539"},{"reference":"Observation/4403633f-899d-3042-8a3e-863c27bd57ae"},{"reference":"Observation/b903826a-06bc-3c2d-a0e1-3b9aed860f0a"},{"reference":"Observation/585761a1-2d41-3688-b5c7-9ae8535b4a67"},{"reference":"Observation/870a2208-83f5-32a8-92e7-da4c228d7d6e"}],"note":[{"extension":[{"url":"https://reportstream.cdc.gov/fhir/StructureDefinition/note-type","valueCodeableConcept":{"coding":[{"extension":[{"url":"https://reportstream.cdc.gov/fhir/StructureDefinition/code-index-name","valueString":"identifier"}],"system":"HL70364","version":"2.5.1","code":"RE","display":"Remark"}]}}],"text":"Test Comment 1"}]}},{"fullUrl":"Device/5db534ea-5e97-4861-ba18-d74acc46db15","resource":{"resourceType":"Device","id":"5db534ea-5e97-4861-ba18-d74acc46db15","identifier":[{"value":"543212134"},{"type":{"coding":[{"code":"MNI"}]}}],"manufacturer":"Acme","deviceName":[{"name":"ID NOW","type":"model-name"}]}},{"fullUrl":"PractitionerRole/5db534ea-5e97-4861-ba18-d74acc46db15","resource":{"resourceType":"PractitionerRole","id":"5db534ea-5e97-4861-ba18-d74acc46db15","practitioner":{"reference":"Practitioner/1013012657"},"organization":{"reference":"Organization/5db534ea-5e97-4861-ba18-d74acc46db15"}}},{"fullUrl":"Organization/07640c5d-87cd-488b-9343-a226c5166539","resource":{"resourceType":"Organization","id":"07640c5d-87cd-488b-9343-a226c5166539","name":"SimpleReport"}},{"fullUrl":"Observation/5db534ea-5e97-4861-ba18-d74acc46db15","resource":{"resourceType":"Observation","id":"5db534ea-5e97-4861-ba18-d74acc46db15","status":"final","code":{"coding":[{"system":"http://loinc.org","code":"94534-5","display":"SARS coronavirus 2 RNA [Presence] in Respiratory specimen by NAA with probe detection"}],"text":"COVID-19"},"subject":{"reference":"Patient/1234"},"issued":"2021-12-23T20:00:00.000Z","performer":[{"reference":"Organization/12345000-0000-0000-0000-000000000000"}],"valueCodeableConcept":{"coding":[{"system":"http://snomed.info/sct","code":"260373001","display":"Detected"}]},"interpretation":[{"coding":[{"system":"http://terminology.hl7.org/CodeSystem/v2-0078","code":"A","display":"Abnormal"}]}],"method":{"extension":[{"url":"https://reportstream.cdc.gov/fhir/StructureDefinition/testkit-name-id","valueCoding":{"code":"BOOMX2"}}],"coding":[{"display":"ID NOW"}]},"specimen":{"reference":"Specimen/5db534ea-5e97-4861-ba18-d74acc46db15"},"device":{"reference":"Device/5db534ea-5e97-4861-ba18-d74acc46db15"}}},{"fullUrl":"Observation/7e5bdd49-f9ca-3c9c-b379-19343eac04be","resource":{"resourceType":"Observation","id":"7e5bdd49-f9ca-3c9c-b379-19343eac04be","identifier":[{"use":"official","type":{"coding":[{"system":"http://loinc.org","code":"81959-9","display":"Public health laboratory ask at order entry panel"}]}}],"status":"final","code":{"coding":[{"system":"http://loinc.org","code":"95419-8","display":"Has symptoms related to condition of interest"}],"text":"Has symptoms related to condition of interest"},"subject":{"reference":"Patient/1234"},"valueCodeableConcept":{"coding":[{"system":"http://terminology.hl7.org/ValueSet/v2-0136","code":"N","display":"No"}]}}},{"fullUrl":"Observation/07099f95-8754-3317-8e87-e1c4717c1af1","resource":{"resourceType":"Observation","id":"07099f95-8754-3317-8e87-e1c4717c1af1","identifier":[{"use":"official","type":{"coding":[{"system":"http://loinc.org","code":"81959-9","display":"Public health laboratory ask at order entry panel"}]}}],"status":"final","code":{"coding":[{"system":"http://loinc.org","code":"82810-3","display":"Pregnancy status"}],"text":"Pregnancy status"},"subject":{"reference":"Patient/1234"},"valueCodeableConcept":{"coding":[{"system":"http://snomed.info/sct","code":"77386006","display":"Pregnant"}]}}},{"fullUrl":"Observation/7cae2c8e-cc60-35f6-8980-dd6bc9e1f539","resource":{"resourceType":"Observation","id":"7cae2c8e-cc60-35f6-8980-dd6bc9e1f539","identifier":[{"use":"official","type":{"coding":[{"system":"http://loinc.org","code":"81959-9","display":"Public health laboratory ask at order entry panel"}]}}],"status":"final","code":{"coding":[{"system":"http://loinc.org","code":"95418-0","display":"Employed in a healthcare setting"}],"text":"Employed in a healthcare setting"},"subject":{"reference":"Patient/1234"},"valueCodeableConcept":{"coding":[{"system":"http://terminology.hl7.org/ValueSet/v2-0136","code":"N","display":"No"}]}}},{"fullUrl":"Observation/4403633f-899d-3042-8a3e-863c27bd57ae","resource":{"resourceType":"Observation","id":"4403633f-899d-3042-8a3e-863c27bd57ae","identifier":[{"use":"official","type":{"coding":[{"system":"http://loinc.org","code":"81959-9","display":"Public health laboratory ask at order entry panel"}]}}],"status":"final","code":{"coding":[{"system":"http://loinc.org","code":"77974-4","display":"Hospitalized for condition"}],"text":"Hospitalized for condition"},"subject":{"reference":"Patient/1234"},"valueCodeableConcept":{"coding":[{"system":"http://terminology.hl7.org/ValueSet/v2-0136","code":"N","display":"No"}]}}},{"fullUrl":"Observation/b903826a-06bc-3c2d-a0e1-3b9aed860f0a","resource":{"resourceType":"Observation","id":"b903826a-06bc-3c2d-a0e1-3b9aed860f0a","identifier":[{"use":"official","type":{"coding":[{"system":"http://loinc.org","code":"81959-9","display":"Public health laboratory ask at order entry panel"}]}}],"status":"final","code":{"coding":[{"system":"http://loinc.org","code":"95420-6","display":"Admitted to ICU for condition"}],"text":"Admitted to ICU for condition"},"subject":{"reference":"Patient/1234"},"valueCodeableConcept":{"coding":[{"system":"http://terminology.hl7.org/CodeSystem/v3-NullFlavor","code":"UNK","display":"unknown"}]}}},{"fullUrl":"Observation/585761a1-2d41-3688-b5c7-9ae8535b4a67","resource":{"resourceType":"Observation","id":"585761a1-2d41-3688-b5c7-9ae8535b4a67","identifier":[{"use":"official","type":{"coding":[{"system":"http://loinc.org","code":"81959-9","display":"Public health laboratory ask at order entry panel"}]}}],"status":"final","code":{"coding":[{"system":"http://loinc.org","code":"95421-4","display":"Resides in a congregate care setting"}],"text":"Resides in a congregate care setting"},"subject":{"reference":"Patient/1234"},"valueCodeableConcept":{"coding":[{"system":"http://terminology.hl7.org/ValueSet/v2-0136","code":"Y","display":"Yes"}]}}},{"fullUrl":"Observation/870a2208-83f5-32a8-92e7-da4c228d7d6e","resource":{"resourceType":"Observation","id":"870a2208-83f5-32a8-92e7-da4c228d7d6e","identifier":[{"use":"official","type":{"coding":[{"system":"http://loinc.org","code":"81959-9","display":"Public health laboratory ask at order entry panel"}]}}],"status":"final","code":{"coding":[{"system":"http://loinc.org","code":"75617-1","display":"Residence"}],"text":"Residence"},"subject":{"reference":"Patient/1234"},"valueCodeableConcept":{"coding":[{"system":"http://snomed.info/sct","code":"30629002","display":"retirement home"}]}}}]}
{"resourceType":"Bundle","identifier":{"value":"234"},"type":"message","timestamp":"2023-05-24T19:33:06.472Z","entry":[{"fullUrl":"MessageHeader/5db534ea-5e97-4861-ba18-d74acc46db15","resource":{"resourceType":"MessageHeader","id":"5db534ea-5e97-4861-ba18-d74acc46db15","meta":{"tag":[{"system":"http://terminology.hl7.org/CodeSystem/v2-0103","code":"P","display":"Production"}]},"eventCoding":{"system":"http://terminology.hl7.org/CodeSystem/v2-0003","code":"R01","display":"ORU/ACK - Unsolicited transmission of an observation message"},"destination":[{"name":"PRIME ReportStream","endpoint":"https://prime.cdc.gov/api/reports?option=SkipInvalidItems"}],"sender":{"reference":"Organization/12345000-0000-0000-0000-000000000000"},"source":{"extension":[{"url":"https://reportstream.cdc.gov/fhir/StructureDefinition/software-binary-id","valueString":"short-commit-id"},{"url":"https://reportstream.cdc.gov/fhir/StructureDefinition/software-install-date","valueInstant":"2023-02-08T21:33:06Z"},{"url":"https://reportstream.cdc.gov/fhir/StructureDefinition/software-vendor-org","valueReference":{"reference":"Organization/07640c5d-87cd-488b-9343-a226c5166539"}}],"software":"PRIME SimpleReport","version":"short-commit-id","endpoint":"https://simplereport.gov"},"focus":[{"reference":"Provenance/5db534ea-5e97-4861-ba18-d74acc46db15"},{"reference":"DiagnosticReport/234"}]}},{"fullUrl":"Provenance/5db534ea-5e97-4861-ba18-d74acc46db15","resource":{"resourceType":"Provenance","id":"5db534ea-5e97-4861-ba18-d74acc46db15","recorded":"2023-05-24T19:33:06.472Z","activity":{"coding":[{"system":"http://terminology.hl7.org/CodeSystem/v2-0003","code":"R01","display":"ORU/ACK - Unsolicited transmission of an observation message"}]},"agent":[{"who":{"reference":"Organization/12345000-0000-0000-0000-000000000000"}}]}},{"fullUrl":"DiagnosticReport/234","resource":{"resourceType":"DiagnosticReport","id":"234","identifier":[{"value":"234"}],"basedOn":[{"reference":"ServiceRequest/5db534ea-5e97-4861-ba18-d74acc46db15"}],"status":"final","code":{"coding":[{"system":"http://loinc.org","code":"94534-5","display":"SARS-CoV-2 (COVID-19) RNA panel - Respiratory specimen by NAA with probe detection"}]},"subject":{"reference":"Patient/2345"},"effectiveDateTime":"2021-12-23T14:00:00-06:00","issued":"2021-12-24T14:00:00-06:00","specimen":[{"reference":"Specimen/5db534ea-5e97-4861-ba18-d74acc46db15"}],"result":[{"reference":"Observation/5db534ea-5e97-4861-ba18-d74acc46db15"}]}},{"fullUrl":"Patient/2345","resource":{"resourceType":"Patient","id":"2345","extension":[{"url":"http://ibm.com/fhir/cdm/StructureDefinition/local-race-cd","valueCodeableConcept":{"coding":[{"system":"http://terminology.hl7.org/CodeSystem/v3-Race","code":"2106-3"}],"text":"White"}},{"url":"https://reportstream.cdc.gov/fhir/StructureDefinition/ethnic-group","valueCodeableConcept":{"coding":[{"system":"http://terminology.hl7.org/CodeSystem/v2-0189","code":"H","display":"Hispanic or Latino"}],"text":"Hispanic or Latino"}}],"identifier":[{"value":"2345"}],"name":[{"family":"Doe","given":["Jayne"]}],"telecom":[{"system":"phone","value":"(205) 999 2800","use":"mobile"}],"gender":"female","birthDate":"1962-01-20","address":[{"line":["123 Main St"],"city":"Birmingham","district":"Jefferson","state":"AL","postalCode":"35226","country":"USA"}],"managingOrganization":{"reference":"Organization/12345000-0000-0000-0000-000000000000"}}},{"fullUrl":"Organization/12345000-0000-0000-0000-000000000000","resource":{"resourceType":"Organization","id":"12345000-0000-0000-0000-000000000000","identifier":[{"use":"official","type":{"coding":[{"system":"http://terminology.hl7.org/CodeSystem/v2-0301","code":"CLIA"}]},"value":"01D1058442"}],"name":"My Testing Lab","telecom":[{"system":"phone","value":"(205) 888 2000","use":"work"}],"address":[{"line":["300 North Street"],"city":"Birmingham","state":"AL","postalCode":"35228","country":"USA"}]}},{"fullUrl":"Organization/5db534ea-5e97-4861-ba18-d74acc46db15","resource":{"resourceType":"Organization","id":"5db534ea-5e97-4861-ba18-d74acc46db15","identifier":[{"use":"official","type":{"coding":[{"system":"http://terminology.hl7.org/CodeSystem/v2-0301","code":"CLIA"}]},"value":"01D1058442"}],"name":"My Urgent Care","telecom":[{"system":"phone","value":"(205) 888 2000","use":"work"}],"address":[{"line":["400 Main Street","Suite 100"],"city":"Birmingham","state":"AL","postalCode":"35228","country":"USA"}]}},{"fullUrl":"Practitioner/1013012657","resource":{"resourceType":"Practitioner","id":"1013012657","identifier":[{"system":"http://hl7.org/fhir/sid/us-npi","value":"1013012657"}],"name":[{"family":"Smith MD","given":["John"]}],"telecom":[{"system":"phone","value":"(205) 888 2000","use":"work"}],"address":[{"line":["400 Main Street"],"city":"Birmingham","state":"AL","postalCode":"35228","country":"USA"}]}},{"fullUrl":"Specimen/5db534ea-5e97-4861-ba18-d74acc46db15","resource":{"resourceType":"Specimen","id":"5db534ea-5e97-4861-ba18-d74acc46db15","identifier":[{"value":"5db534ea-5e97-4861-ba18-d74acc46db15"}],"type":{"coding":[{"system":"http://snomed.info/sct","code":"445297001"}],"text":"Nasal swab"},"subject":{"reference":"Patient/2345"},"receivedTime":"2021-12-22T14:00:00-06:00","collection":{"collectedDateTime":"2021-12-21T14:00:00-06:00","bodySite":{"coding":[{"system":"http://snomed.info/sct","code":"87100004"}],"text":"Topography unknown (body structure)"}}}},{"fullUrl":"ServiceRequest/5db534ea-5e97-4861-ba18-d74acc46db15","resource":{"resourceType":"ServiceRequest","id":"5db534ea-5e97-4861-ba18-d74acc46db15","extension":[{"url":"https://reportstream.cdc.gov/fhir/StructureDefinition/order-control","valueCodeableConcept":{"coding":[{"system":"http://terminology.hl7.org/CodeSystem/v2-0119","code":"RE"}]}},{"url":"https://reportstream.cdc.gov/fhir/StructureDefinition/order-effective-date","valueDateTime":"2021-12-20T14:00:00-06:00"}],"status":"completed","intent":"order","code":{"coding":[{"system":"http://loinc.org","code":"94534-5"}]},"subject":{"reference":"Patient/2345"},"requester":{"reference":"PractitionerRole/5db534ea-5e97-4861-ba18-d74acc46db15"},"performer":[{"reference":"Organization/12345000-0000-0000-0000-000000000000"}],"supportingInfo":[{"reference":"Observation/3dadfd89-ab2a-3f34-ab90-60180a5c7b9d"},{"reference":"Observation/07099f95-8754-3317-8e87-e1c4717c1af1"},{"reference":"Observation/7cae2c8e-cc60-35f6-8980-dd6bc9e1f539"},{"reference":"Observation/4403633f-899d-3042-8a3e-863c27bd57ae"},{"reference":"Observation/b903826a-06bc-3c2d-a0e1-3b9aed860f0a"},{"reference":"Observation/585761a1-2d41-3688-b5c7-9ae8535b4a67"},{"reference":"Observation/870a2208-83f5-32a8-92e7-da4c228d7d6e"}],"note":[{"extension":[{"url":"https://reportstream.cdc.gov/fhir/StructureDefinition/note-type","valueCodeableConcept":{"coding":[{"extension":[{"url":"https://reportstream.cdc.gov/fhir/StructureDefinition/code-index-name","valueString":"identifier"}],"system":"HL70364","version":"2.5.1","code":"RE","display":"Remark"}]}}],"text":"Test Comment 2"}]}},{"fullUrl":"Device/5db534ea-5e97-4861-ba18-d74acc46db15","resource":{"resourceType":"Device","id":"5db534ea-5e97-4861-ba18-d74acc46db15","identifier":[{"value":"543212134"},{"type":{"coding":[{"code":"MNI"}]}}],"manufacturer":"Acme","deviceName":[{"name":"ID NOW","type":"model-name"}]}},{"fullUrl":"PractitionerRole/5db534ea-5e97-4861-ba18-d74acc46db15","resource":{"resourceType":"PractitionerRole","id":"5db534ea-5e97-4861-ba18-d74acc46db15","practitioner":{"reference":"Practitioner/1013012657"},"organization":{"reference":"Organization/5db534ea-5e97-4861-ba18-d74acc46db15"}}},{"fullUrl":"Organization/07640c5d-87cd-488b-9343-a226c5166539","resource":{"resourceType":"Organization","id":"07640c5d-87cd-488b-9343-a226c5166539","name":"SimpleReport"}},{"fullUrl":"Observation/5db534ea-5e97-4861-ba18-d74acc46db15","resource":{"resourceType":"Observation","id":"5db534ea-5e97-4861-ba18-d74acc46db15","status":"final","code":{"coding":[{"system":"http://loinc.org","code":"94534-5","display":"SARS coronavirus 2 RNA [Presence] in Respiratory specimen by NAA with probe detection"}],"text":"COVID-19"},"subject":{"reference":"Patient/2345"},"issued":"2021-12-23T20:00:00.000Z","performer":[{"reference":"Organization/12345000-0000-0000-0000-000000000000"}],"valueCodeableConcept":{"coding":[{"system":"http://snomed.info/sct","code":"260415000","display":"Not detected"}]},"interpretation":[{"coding":[{"system":"http://terminology.hl7.org/CodeSystem/v2-0078","code":"N","display":"Normal"}]}],"method":{"extension":[{"url":"https://reportstream.cdc.gov/fhir/StructureDefinition/testkit-name-id","valueCoding":{"code":"BOOMX2"}}],"coding":[{"display":"ID NOW"}]},"specimen":{"reference":"Specimen/5db534ea-5e97-4861-ba18-d74acc46db15"},"device":{"reference":"Device/5db534ea-5e97-4861-ba18-d74acc46db15"}}},{"fullUrl":"Observation/3dadfd89-ab2a-3f34-ab90-60180a5c7b9d","resource":{"resourceType":"Observation","id":"3dadfd89-ab2a-3f34-ab90-60180a5c7b9d","identifier":[{"use":"official","type":{"coding":[{"system":"http://loinc.org","code":"81959-9","display":"Public health laboratory ask at order entry panel"}]}}],"status":"final","code":{"coding":[{"system":"http://loinc.org","code":"95419-8","display":"Has symptoms related to condition of interest"}],"text":"Has symptoms related to condition of interest"},"subject":{"reference":"Patient/2345"},"valueCodeableConcept":{"coding":[{"system":"http://terminology.hl7.org/ValueSet/v2-0136","code":"N","display":"No"}]}}},{"fullUrl":"Observation/07099f95-8754-3317-8e87-e1c4717c1af1","resource":{"resourceType":"Observation","id":"07099f95-8754-3317-8e87-e1c4717c1af1","identifier":[{"use":"official","type":{"coding":[{"system":"http://loinc.org","code":"81959-9","display":"Public health laboratory ask at order entry panel"}]}}],"status":"final","code":{"coding":[{"system":"http://loinc.org","code":"82810-3","display":"Pregnancy status"}],"text":"Pregnancy status"},"subject":{"reference":"Patient/2345"},"valueCodeableConcept":{"coding":[{"system":"http://snomed.info/sct","code":"60001007","display":"Not pregnant"}]}}},{"fullUrl":"Observation/7cae2c8e-cc60-35f6-8980-dd6bc9e1f539","resource":{"resourceType":"Observation","id":"7cae2c8e-cc60-35f6-8980-dd6bc9e1f539","identifier":[{"use":"official","type":{"coding":[{"system":"http://loinc.org","code":"81959-9","display":"Public health laboratory ask at order entry panel"}]}}],"status":"final","code":{"coding":[{"system":"http://loinc.org","code":"95418-0","display":"Employed in a healthcare setting"}],"text":"Employed in a healthcare setting"},"subject":{"reference":"Patient/2345"},"valueCodeableConcept":{"coding":[{"system":"http://terminology.hl7.org/ValueSet/v2-0136","code":"Y","display":"Yes"}]}}},{"fullUrl":"Observation/4403633f-899d-3042-8a3e-863c27bd57ae","resource":{"resourceType":"Observation","id":"4403633f-899d-3042-8a3e-863c27bd57ae","identifier":[{"use":"official","type":{"coding":[{"system":"http://loinc.org","code":"81959-9","display":"Public health laboratory ask at order entry panel"}]}}],"status":"final","code":{"coding":[{"system":"http://loinc.org","code":"77974-4","display":"Hospitalized for condition"}],"text":"Hospitalized for condition"},"subject":{"reference":"Patient/2345"},"valueCodeableConcept":{"coding":[{"system":"http://terminology.hl7.org/CodeSystem/v3-NullFlavor","code":"UNK","display":"unknown"}]}}},{"fullUrl":"Observation/b903826a-06bc-3c2d-a0e1-3b9aed860f0a","resource":{"resourceType":"Observation","id":"b903826a-06bc-3c2d-a0e1-3b9aed860f0a","identifier":[{"use":"official","type":{"coding":[{"system":"http://loinc.org","code":"81959-9","display":"Public health laboratory ask at order entry panel"}]}}],"status":"final","code":{"coding":[{"system":"http://loinc.org","code":"95420-6","display":"Admitted to ICU for condition"}],"text":"Admitted to ICU for condition"},"subject":{"reference":"Patient/2345"},"valueCodeableConcept":{"coding":[{"system":"http://terminology.hl7.org/ValueSet/v2-0136","code":"N","display":"No"}]}}},{"fullUrl":"Observation/585761a1-2d41-3688-b5c7-9ae8535b4a67","resource":{"resourceType":"Observation","id":"585761a1-2d41-3688-b5c7-9ae8535b4a67","identifier":[{"use":"official","type":{"coding":[{"system":"http://loinc.org","code":"81959-9","display":"Public health laboratory ask at order entry panel"}]}}],"status":"final","code":{"coding":[{"system":"http://loinc.org","code":"95421-4","display":"Resides in a congregate care setting"}],"text":"Resides in a congregate care setting"},"subject":{"reference":"Patient/2345"},"valueCodeableConcept":{"coding":[{"system":"http://terminology.hl7.org/ValueSet/v2-0136","code":"Y","display":"Yes"}]}}},{"fullUrl":"Observation/870a2208-83f5-32a8-92e7-da4c228d7d6e","resource":{"resourceType":"Observation","id":"870a2208-83f5-32a8-92e7-da4c228d7d6e","identifier":[{"use":"official","type":{"coding":[{"system":"http://loinc.org","code":"81959-9","display":"Public health laboratory ask at order entry panel"}]}}],"status":"final","code":{"coding":[{"system":"http://loinc.org","code":"75617-1","display":"Residence"}],"text":"Residence"},"subject":{"reference":"Patient/2345"},"valueCodeableConcept":{"coding":[{"system":"http://snomed.info/sct","code":"224683003","display":"military accommodation"}]}}}]}
{"resourceType":"Bundle","identifier":{"value":"345"},"type":"message","timestamp":"2023-05-24T19:33:06.472Z","entry":[{"fullUrl":"MessageHeader/5db534ea-5e97-4861-ba18-d74acc46db15","resource":{"resourceType":"MessageHeader","id":"5db534ea-5e97-4861-ba18-d74acc46db15","meta":{"tag":[{"system":"http://terminology.hl7.org/CodeSystem/v2-0103","code":"P","display":"Production"}]},"eventCoding":{"system":"http://terminology.hl7.org/CodeSystem/v2-0003","code":"R01","display":"ORU/ACK - Unsolicited transmission of an observation message"},"destination":[{"name":"PRIME ReportStream","endpoint":"https://prime.cdc.gov/api/reports?option=SkipInvalidItems"}],"sender":{"reference":"Organization/12345000-0000-0000-0000-000000000000"},"source":{"extension":[{"url":"https://reportstream.cdc.gov/fhir/StructureDefinition/software-binary-id","valueString":"short-commit-id"},{"url":"https://reportstream.cdc.gov/fhir/StructureDefinition/software-install-date","valueInstant":"2023-02-08T21:33:06Z"},{"url":"https://reportstream.cdc.gov/fhir/StructureDefinition/software-vendor-org","valueReference":{"reference":"Organization/07640c5d-87cd-488b-9343-a226c5166539"}}],"software":"PRIME SimpleReport","version":"short-commit-id","endpoint":"https://simplereport.gov"},"focus":[{"reference":"Provenance/5db534ea-5e97-4861-ba18-d74acc46db15"},{"reference":"DiagnosticReport/345"}]}},{"fullUrl":"Provenance/5db534ea-5e97-4861-ba18-d74acc46db15","resource":{"resourceType":"Provenance","id":"5db534ea-5e97-4861-ba18-d74acc46db15","recorded":"2023-05-24T19:33:06.472Z","activity":{"coding":[{"system":"http://terminology.hl7.org/CodeSystem/v2-0003","code":"R01","display":"ORU/ACK - Unsolicited transmission of an observation message"}]},"agent":[{"who":{"reference":"Organization/12345000-0000-0000-0000-000000000000"}}]}},{"fullUrl":"DiagnosticReport/345","resource":{"resourceType":"DiagnosticReport","id":"345","identifier":[{"value":"345"}],"basedOn":[{"reference":"ServiceRequest/5db534ea-5e97-4861-ba18-d74acc46db15"}],"status":"final","code":{"coding":[{"system":"http://loinc.org","code":"94534-5","display":"SARS-CoV-2 (COVID-19) RNA panel - Respiratory specimen by NAA with probe detection"}]},"subject":{"reference":"Patient/3456"},"effectiveDateTime":"2021-12-23T14:00:00-06:00","issued":"2021-12-24T14:00:00-06:00","specimen":[{"reference":"Specimen/5db534ea-5e97-4861-ba18-d74acc46db15"}],"result":[{"reference":"Observation/5db534ea-5e97-4861-ba18-d74acc46db15"}]}},{"fullUrl":"Patient/3456","resource":{"resourceType":"Patient","id":"3456","extension":[{"url":"http://ibm.com/fhir/cdm/StructureDefinition/local-race-cd","valueCodeableConcept":{"coding":[{"system":"http://terminology.hl7.org/CodeSystem/v3-Race","code":"2028-9"}],"text":"Asian"}},{"url":"https://reportstream.cdc.gov/fhir/StructureDefinition/ethnic-group","valueCodeableConcept":{"coding":[{"system":"http://terminology.hl7.org/CodeSystem/v2-0189","code":"N","display":"Not Hispanic or Latino"}],"text":"Not Hispanic or Latino"}}],"identifier":[{"value":"3456"}],"name":[{"family":"Doe","given":["Jan"]}],"telecom":[{"system":"phone","value":"(205) 999 2800","use":"mobile"}],"gender":"female","birthDate":"1962-01-20","address":[{"line":["123 Main St"],"city":"Birmingham","district":"Jefferson","state":"AL","postalCode":"35226","country":"USA"}],"managingOrganization":{"reference":"Organization/12345000-0000-0000-0000-000000000000"}}},{"fullUrl":"Organization/12345000-0000-0000-0000-000000000000","resource":{"resourceType":"Organization","id":"12345000-0000-0000-0000-000000000000","identifier":[{"use":"official","type":{"coding":[{"system":"http://terminology.hl7.org/CodeSystem/v2-0301","code":"CLIA"}]},"value":"01D1058442"}],"name":"My Testing Lab","telecom":[{"system":"phone","value":"(205) 888 2000","use":"work"}],"address":[{"line":["300 North Street"],"city":"Birmingham","state":"AL","postalCode":"35228","country":"USA"}]}},{"fullUrl":"Organization/5db534ea-5e97-4861-ba18-d74acc46db15","resource":{"resourceType":"Organization","id":"5db534ea-5e97-4861-ba18-d74acc46db15","identifier":[{"use":"official","type":{"coding":[{"system":"http://terminology.hl7.org/CodeSystem/v2-0301","code":"CLIA"}]},"value":"01D1058442"}],"name":"My Urgent Care","telecom":[{"system":"phone","value":"(205) 888 2000","use":"work"}],"address":[{"line":["400 Main Street","Suite 100"],"city":"Birmingham","state":"AL","postalCode":"35228","country":"USA"}]}},{"fullUrl":"Practitioner/1013012657","resource":{"resourceType":"Practitioner","id":"1013012657","identifier":[{"system":"http://hl7.org/fhir/sid/us-npi","value":"1013012657"}],"name":[{"family":"Smith MD","given":["John"]}],"telecom":[{"system":"phone","value":"(205) 888 2000","use":"work"}],"address":[{"line":["400 Main Street"],"city":"Birmingham","state":"AL","postalCode":"35228","country":"USA"}]}},{"fullUrl":"Specimen/5db534ea-5e97-4861-ba18-d74acc46db15","resource":{"resourceType":"Specimen","id":"5db534ea-5e97-4861-ba18-d74acc46db15","identifier":[{"value":"5db534ea-5e97-4861-ba18-d74acc46db15"}],"type":{"coding":[{"system":"http://snomed.info/sct","code":"445297001"}],"text":"Nasal swab"},"subject":{"reference":"Patient/3456"},"receivedTime":"2021-12-22T14:00:00-06:00","collection":{"collectedDateTime":"2021-12-21T14:00:00-06:00","bodySite":{"coding":[{"system":"http://snomed.info/sct","code":"87100004"}],"text":"Topography unknown (body structure)"}}}},{"fullUrl":"ServiceRequest/5db534ea-5e97-4861-ba18-d74acc46db15","resource":{"resourceType":"ServiceRequest","id":"5db534ea-5e97-4861-ba18-d74acc46db15","extension":[{"url":"https://reportstream.cdc.gov/fhir/StructureDefinition/order-control","valueCodeableConcept":{"coding":[{"system":"http://terminology.hl7.org/CodeSystem/v2-0119","code":"RE"}]}},{"url":"https://reportstream.cdc.gov/fhir/StructureDefinition/order-effective-date","valueDateTime":"2021-12-20T14:00:00-06:00"}],"status":"completed","intent":"order","code":{"coding":[{"system":"http://loinc.org","code":"94534-5"}]},"subject":{"reference":"Patient/3456"},"requester":{"reference":"PractitionerRole/5db534ea-5e97-4861-ba18-d74acc46db15"},"performer":[{"reference":"Organization/12345000-0000-0000-0000-000000000000"}],"supportingInfo":[{"reference":"Observation/b24ef60b-fd2c-3987-9263-e27b7c5788ea"},{"reference":"Observation/07099f95-8754-3317-8e87-e1c4717c1af1"},{"reference":"Observation/7cae2c8e-cc60-35f6-8980-dd6bc9e1f539"},{"reference":"Observation/4403633f-899d-3042-8a3e-863c27bd57ae"},{"reference":"Observation/b903826a-06bc-3c2d-a0e1-3b9aed860f0a"},{"reference":"Observation/585761a1-2d41-3688-b5c7-9ae8535b4a67"}],"note":[{"extension":[{"url":"https://reportstream.cdc.gov/fhir/StructureDefinition/note-type","valueCodeableConcept":{"coding":[{"extension":[{"url":"https://reportstream.cdc.gov/fhir/StructureDefinition/code-index-name","valueString":"identifier"}],"system":"HL70364","version":"2.5.1","code":"RE","display":"Remark"}]}}],"text":"Test Comment 3"}]}},{"fullUrl":"Device/5db534ea-5e97-4861-ba18-d74acc46db15","resource":{"resourceType":"Device","id":"5db534ea-5e97-4861-ba18-d74acc46db15","identifier":[{"value":"543212134"},{"type":{"coding":[{"code":"MNI"}]}}],"manufacturer":"Acme","deviceName":[{"name":"ID NOW","type":"model-name"}]}},{"fullUrl":"PractitionerRole/5db534ea-5e97-4861-ba18-d74acc46db15","resource":{"resourceType":"PractitionerRole","id":"5db534ea-5e97-4861-ba18-d74acc46db15","practitioner":{"reference":"Practitioner/1013012657"},"organization":{"reference":"Organization/5db534ea-5e97-4861-ba18-d74acc46db15"}}},{"fullUrl":"Organization/07640c5d-87cd-488b-9343-a226c5166539","resource":{"resourceType":"Organization","id":"07640c5d-87cd-488b-9343-a226c5166539","name":"SimpleReport"}},{"fullUrl":"Observation/5db534ea-5e97-4861-ba18-d74acc46db15","resource":{"resourceType":"Observation","id":"5db534ea-5e97-4861-ba18-d74acc46db15","status":"final","code":{"coding":[{"system":"http://loinc.org","code":"94534-5","display":"SARS coronavirus 2 RNA [Presence] in Respiratory specimen by NAA with probe detection"}],"text":"COVID-19"},"subject":{"reference":"Patient/3456"},"issued":"2021-12-23T20:00:00.000Z","performer":[{"reference":"Organization/12345000-0000-0000-0000-000000000000"}],"valueCodeableConcept":{"coding":[{"system":"http://snomed.info/sct","code":"260373001","display":"Detected"}]},"interpretation":[{"coding":[{"system":"http://terminology.hl7.org/CodeSystem/v2-0078","code":"A","display":"Abnormal"}]}],"method":{"extension":[{"url":"https://reportstream.cdc.gov/fhir/StructureDefinition/testkit-name-id","valueCoding":{"code":"BOOMX2"}}],"coding":[{"display":"ID NOW"}]},"specimen":{"reference":"Specimen/5db534ea-5e97-4861-ba18-d74acc46db15"},"device":{"reference":"Device/5db534ea-5e97-4861-ba18-d74acc46db15"}}},{"fullUrl":"Observation/b24ef60b-fd2c-3987-9263-e27b7c5788ea","resource":{"resourceType":"Observation","id":"b24ef60b-fd2c-3987-9263-e27b7c5788ea","identifier":[{"use":"official","type":{"coding":[{"system":"http://loinc.org","code":"81959-9","display":"Public health laboratory ask at order entry panel"}]}}],"status":"final","code":{"coding":[{"system":"http://loinc.org","code":"95419-8","display":"Has symptoms related to condition of interest"}],"text":"Has symptoms related to condition of interest"},"subject":{"reference":"Patient/3456"},"valueCodeableConcept":{"coding":[{"system":"http://terminology.hl7.org/ValueSet/v2-0136","code":"N","display":"No"}]}}},{"fullUrl":"Observation/07099f95-8754-3317-8e87-e1c4717c1af1","resource":{"resourceType":"Observation","id":"07099f95-8754-3317-8e87-e1c4717c1af1","identifier":[{"use":"official","type":{"coding":[{"system":"http://loinc.org","code":"81959-9","display":"Public health laboratory ask at order entry panel"}]}}],"status":"final","code":{"coding":[{"system":"http://loinc.org","code":"82810-3","display":"Pregnancy status"}],"text":"Pregnancy status"},"subject":{"reference":"Patient/3456"},"valueCodeableConcept":{"coding":[{"system":"http://snomed.info/sct","code":"60001007","display":"Not pregnant"}]}}},{"fullUrl":"Observation/7cae2c8e-cc60-35f6-8980-dd6bc9e1f539","resource":{"resourceType":"Observation","id":"7cae2c8e-cc60-35f6-8980-dd6bc9e1f539","identifier":[{"use":"official","type":{"coding":[{"system":"http://loinc.org","code":"81959-9","display":"Public health laboratory ask at order entry panel"}]}}],"status":"final","code":{"coding":[{"system":"http://loinc.org","code":"95418-0","display":"Employed in a healthcare setting"}],"text":"Employed in a healthcare setting"},"subject":{"reference":"Patient/3456"},"valueCodeableConcept":{"coding":[{"system":"http://terminology.hl7.org/CodeSystem/v3-NullFlavor","code":"UNK","display":"unknown"}]}}},{"fullUrl":"Observation/4403633f-899d-3042-8a3e-863c27bd57ae","resource":{"resourceType":"Observation","id":"4403633f-899d-3042-8a3e-863c27bd57ae","identifier":[{"use":"official","type":{"coding":[{"system":"http://loinc.org","code":"81959-9","display":"Public health laboratory ask at order entry panel"}]}}],"status":"final","code":{"coding":[{"system":"http://loinc.org","code":"77974-4","display":"Hospitalized for condition"}],"text":"Hospitalized for condition"},"subject":{"reference":"Patient/3456"},"valueCodeableConcept":{"coding":[{"system":"http://terminology.hl7.org/ValueSet/v2-0136","code":"N","display":"No"}]}}},{"fullUrl":"Observation/b903826a-06bc-3c2d-a0e1-3b9aed860f0a","resource":{"resourceType":"Observation","id":"b903826a-06bc-3c2d-a0e1-3b9aed860f0a","identifier":[{"use":"official","type":{"coding":[{"system":"http://loinc.org","code":"81959-9","display":"Public health laboratory ask at order entry panel"}]}}],"status":"final","code":{"coding":[{"system":"http://loinc.org","code":"95420-6","display":"Admitted to ICU for condition"}],"text":"Admitted to ICU for condition"},"subject":{"reference":"Patient/3456"},"valueCodeableConcept":{"coding":[{"system":"http://terminology.hl7.org/ValueSet/v2-0136","code":"Y","display":"Yes"}]}}},{"fullUrl":"Observation/585761a1-2d41-3688-b5c7-9ae8535b4a67","resource":{"resourceType":"Observation","id":"585761a1-2d41-3688-b5c7-9ae8535b4a67","identifier":[{"use":"official","type":{"coding":[{"system":"http://loinc.org","code":"81959-9","display":"Public health laboratory ask at order entry panel"}]}}],"status":"final","code":{"coding":[{"system":"http://loinc.org","code":"95421-4","display":"Resides in a congregate care setting"}],"text":"Resides in a congregate care setting"},"subject":{"reference":"Patient/3456"},"valueCodeableConcept":{"coding":[{"system":"http://terminology.hl7.org/ValueSet/v2-0136","code":"N","display":"No"}]}}}]}
{"resourceType":"Bundle","identifier":{"value":"456"},"type":"message","timestamp":"2023-05-24T19:33:06.472Z","entry":[{"fullUrl":"MessageHeader/5db534ea-5e97-4861-ba18-d74acc46db15","resource":{"resourceType":"MessageHeader","id":"5db534ea-5e97-4861-ba18-d74acc46db15","meta":{"tag":[{"system":"http://terminology.hl7.org/CodeSystem/v2-0103","code":"P","display":"Production"}]},"eventCoding":{"system":"http://terminology.hl7.org/CodeSystem/v2-0003","code":"R01","display":"ORU/ACK - Unsolicited transmission of an observation message"},"destination":[{"name":"PRIME ReportStream","endpoint":"https://prime.cdc.gov/api/reports?option=SkipInvalidItems"}],"sender":{"reference":"Organization/12345000-0000-0000-0000-000000000000"},"source":{"extension":[{"url":"https://reportstream.cdc.gov/fhir/StructureDefinition/software-binary-id","valueString":"short-commit-id"},{"url":"https://reportstream.cdc.gov/fhir/StructureDefinition/software-install-date","valueInstant":"2023-02-08T21:33:06Z"},{"url":"https://reportstream.cdc.gov/fhir/StructureDefinition/software-vendor-org","valueReference":{"reference":"Organization/07640c5d-87cd-488b-9343-a226c5166539"}}],"software":"PRIME SimpleReport","version":"short-commit-id","endpoint":"https://simplereport.gov"},"focus":[{"reference":"Provenance/5db534ea-5e97-4861-ba18-d74acc46db15"},{"reference":"DiagnosticReport/456"}]}},{"fullUrl":"Provenance/5db534ea-5e97-4861-ba18-d74acc46db15","resource":{"resourceType":"Provenance","id":"5db534ea-5e97-4861-ba18-d74acc46db15","recorded":"2023-05-24T19:33:06.472Z","activity":{"coding":[{"system":"http://terminology.hl7.org/CodeSystem/v2-0003","code":"R01","display":"ORU/ACK - Unsolicited transmission of an observation message"}]},"agent":[{"who":{"reference":"Organization/12345000-0000-0000-0000-000000000000"}}]}},{"fullUrl":"DiagnosticReport/456","resource":{"resourceType":"DiagnosticReport","id":"456","identifier":[{"value":"456"}],"basedOn":[{"reference":"ServiceRequest/5db534ea-5e97-4861-ba18-d74acc46db15"}],"status":"final","code":{"coding":[{"system":"http://loinc.org","code":"94534-5","display":"SARS-CoV-2 (COVID-19) RNA panel - Respiratory specimen by NAA with probe detection"}]},"subject":{"reference":"Patient/4567"},"effectiveDateTime":"2021-12-23T14:00:00-06:00","issued":"2021-12-24T14:00:00-06:00","specimen":[{"reference":"Specimen/5db534ea-5e97-4861-ba18-d74acc46db15"}],"result":[{"reference":"Observation/5db534ea-5e97-4861-ba18-d74acc46db15"}]}},{"fullUrl":"Patient/4567","resource":{"resourceType":"Patient","id":"4567","extension":[{"url":"http://ibm.com/fhir/cdm/StructureDefinition/local-race-cd","valueCodeableConcept":{"coding":[{"system":"http://terminology.hl7.org/CodeSystem/v3-Race","code":"2054-5"}],"text":"Black or African American"}},{"url":"https://reportstream.cdc.gov/fhir/StructureDefinition/ethnic-group","valueCodeableConcept":{"coding":[{"system":"http://terminology.hl7.org/CodeSystem/v2-0189","code":"H","display":"Hispanic or Latino"}],"text":"Hispanic or Latino"}}],"identifier":[{"value":"4567"}],"name":[{"family":"Doe","given":["Jayn"]}],"telecom":[{"system":"phone","value":"(205) 999 2800","use":"mobile"}],"gender":"female","birthDate":"1962-01-20","address":[{"line":["123 Main St"],"city":"Birmingham","district":"Jefferson","state":"AL","postalCode":"35226","country":"USA"}],"managingOrganization":{"reference":"Organization/12345000-0000-0000-0000-000000000000"}}},{"fullUrl":"Organization/12345000-0000-0000-0000-000000000000","resource":{"resourceType":"Organization","id":"12345000-0000-0000-0000-000000000000","identifier":[{"use":"official","type":{"coding":[{"system":"http://terminology.hl7.org/CodeSystem/v2-0301","code":"CLIA"}]},"value":"01D1058442"}],"name":"My Testing Lab","telecom":[{"system":"phone","value":"(205) 888 2000","use":"work"}],"address":[{"line":["300 North Street"],"city":"Birmingham","state":"AL","postalCode":"35228","country":"USA"}]}},{"fullUrl":"Organization/5db534ea-5e97-4861-ba18-d74acc46db15","resource":{"resourceType":"Organization","id":"5db534ea-5e97-4861-ba18-d74acc46db15","identifier":[{"use":"official","type":{"coding":[{"system":"http://terminology.hl7.org/CodeSystem/v2-0301","code":"CLIA"}]},"value":"01D1058442"}],"name":"My Urgent Care","telecom":[{"system":"phone","value":"(205) 888 2000","use":"work"}],"address":[{"line":["400 Main Street","Suite 100"],"city":"Birmingham","state":"AL","postalCode":"35228","country":"USA"}]}},{"fullUrl":"Practitioner/1013012657","resource":{"resourceType":"Practitioner","id":"1013012657","identifier":[{"system":"http://hl7.org/fhir/sid/us-npi","value":"1013012657"}],"name":[{"family":"Smith MD","given":["John"]}],"telecom":[{"system":"phone","value":"(205) 888 2000","use":"work"}],"address":[{"line":["400 Main Street"],"city":"Birmingham","state":"AL","postalCode":"35228","country":"USA"}]}},{"fullUrl":"Specimen/5db534ea-5e97-4861-ba18-d74acc46db15","resource":{"resourceType":"Specimen","id":"5db534ea-5e97-4861-ba18-d74acc46db15","identifier":[{"value":"5db534ea-5e97-4861-ba18-d74acc46db15"}],"type":{"coding":[{"system":"http://snomed.info/sct","code":"445297001"}],"text":"Nasal swab"},"subject":{"reference":"Patient/4567"},"receivedTime":"2021-12-22T14:00:00-06:00","collection":{"collectedDateTime":"2021-12-21T14:00:00-06:00","bodySite":{"coding":[{"system":"http://snomed.info/sct","code":"87100004"}],"text":"Topography unknown (body structure)"}}}},{"fullUrl":"ServiceRequest/5db534ea-5e97-4861-ba18-d74acc46db15","resource":{"resourceType":"ServiceRequest","id":"5db534ea-5e97-4861-ba18-d74acc46db15","extension":[{"url":"https://reportstream.cdc.gov/fhir/StructureDefinition/order-control","valueCodeableConcept":{"coding":[{"system":"http://terminology.hl7.org/CodeSystem/v2-0119","code":"RE"}]}},{"url":"https://reportstream.cdc.gov/fhir/StructureDefinition/order-effective-date","valueDateTime":"2021-12-20T14:00:00-06:00"}],"status":"completed","intent":"order","code":{"coding":[{"system":"http://loinc.org","code":"94534-5"}]},"subject":{"reference":"Patient/4567"},"requester":{"reference":"PractitionerRole/5db534ea-5e97-4861-ba18-d74acc46db15"},"performer":[{"reference":"Organization/12345000-0000-0000-0000-000000000000"}],"supportingInfo":[{"reference":"Observation/9456e7bb-dbe3-359f-abaa-e8c731fab37d"},{"reference":"Observation/f907292f-dde0-3d9d-a03c-f744f4d1e92a"},{"reference":"Observation/07099f95-8754-3317-8e87-e1c4717c1af1"},{"reference":"Observation/7cae2c8e-cc60-35f6-8980-dd6bc9e1f539"},{"reference":"Observation/4403633f-899d-3042-8a3e-863c27bd57ae"},{"reference":"Observation/b903826a-06bc-3c2d-a0e1-3b9aed860f0a"},{"reference":"Observation/585761a1-2d41-3688-b5c7-9ae8535b4a67"}],"note":[{"extension":[{"url":"https://reportstream.cdc.gov/fhir/StructureDefinition/note-type","valueCodeableConcept":{"coding":[{"extension":[{"url":"https://reportstream.cdc.gov/fhir/StructureDefinition/code-index-name","valueString":"identifier"}],"system":"HL70364","version":"2.5.1","code":"RE","display":"Remark"}]}}],"text":"Test Comment 4"}]}},{"fullUrl":"Device/5db534ea-5e97-4861-ba18-d74acc46db15","resource":{"resourceType":"Device","id":"5db534ea-5e97-4861-ba18-d74acc46db15","identifier":[{"value":"543212134"},{"type":{"coding":[{"code":"MNI"}]}}],"manufacturer":"Acme","deviceName":[{"name":"ID NOW","type":"model-name"}]}},{"fullUrl":"PractitionerRole/5db534ea-5e97-4861-ba18-d74acc46db15","resource":{"resourceType":"PractitionerRole","id":"5db534ea-5e97-4861-ba18-d74acc46db15","practitioner":{"reference":"Practitioner/1013012657"},"organization":{"reference":"Organization/5db534ea-5e97-4861-ba18-d74acc46db15"}}},{"fullUrl":"Organization/07640c5d-87cd-488b-9343-a226c5166539","resource":{"resourceType":"Organization","id":"07640c5d-87cd-488b-9343-a226c5166539","name":"SimpleReport"}},{"fullUrl":"Observation/5db534ea-5e97-4861-ba18-d74acc46db15","resource":{"resourceType":"Observation","id":"5db534ea-5e97-4861-ba18-d74acc46db15","status":"final","code":{"coding":[{"system":"http://loinc.org","code":"94534-5","display":"SARS coronavirus 2 RNA [Presence] in Respiratory specimen by NAA with probe detection"}],"text":"COVID-19"},"subject":{"reference":"Patient/4567"},"issued":"2021-12-23T20:00:00.000Z","performer":[{"reference":"Organization/12345000-0000-0000-0000-000000000000"}],"valueCodeableConcept":{"coding":[{"system":"http://snomed.info/sct","code":"260415000","display":"Not detected"}]},"interpretation":[{"coding":[{"system":"http://terminology.hl7.org/CodeSystem/v2-0078","code":"N","display":"Normal"}]}],"method":{"extension":[{"url":"https://reportstream.cdc.gov/fhir/StructureDefinition/testkit-name-id","valueCoding":{"code":"BOOMX2"}}],"coding":[{"display":"ID NOW"}]},"specimen":{"reference":"Specimen/5db534ea-5e97-4861-ba18-d74acc46db15"},"device":{"reference":"Device/5db534ea-5e97-4861-ba18-d74acc46db15"}}},{"fullUrl":"Observation/9456e7bb-dbe3-359f-abaa-e8c731fab37d","resource":{"resourceType":"Observation","id":"9456e7bb-dbe3-359f-abaa-e8c731fab37d","identifier":[{"use":"official","type":{"coding":[{"system":"http://loinc.org","code":"81959-9","display":"Public health laboratory ask at order entry panel"}]}}],"status":"final","code":{"coding":[{"system":"http://loinc.org","code":"95419-8","display":"Has symptoms related to condition of interest"}],"text":"Has symptoms related to condition of interest"},"subject":{"reference":"Patient/4567"},"valueCodeableConcept":{"coding":[{"system":"http://terminology.hl7.org/ValueSet/v2-0136","code":"Y","display":"Yes"}]}}},{"fullUrl":"Observation/f907292f-dde0-3d9d-a03c-f744f4d1e92a","resource":{"resourceType":"Observation","id":"f907292f-dde0-3d9d-a03c-f744f4d1e92a","identifier":[{"use":"official","type":{"coding":[{"system":"http://loinc.org","code":"81959-9","display":"Public health laboratory ask at order entry panel"}]}}],"status":"final","code":{"coding":[{"system":"http://loinc.org","code":"11368-8","display":"Illness or injury onset date and time"}],"text":"Illness or injury onset date and time"},"subject":{"reference":"Patient/4567"},"valueDateTime":"2020-01-01"}},{"fullUrl":"Observation/07099f95-8754-3317-8e87-e1c4717c1af1","resource":{"resourceType":"Observation","id":"07099f95-8754-3317-8e87-e1c4717c1af1","identifier":[{"use":"official","type":{"coding":[{"system":"http://loinc.org","code":"81959-9","display":"Public health laboratory ask at order entry panel"}]}}],"status":"final","code":{"coding":[{"system":"http://loinc.org","code":"82810-3","display":"Pregnancy status"}],"text":"Pregnancy status"},"subject":{"reference":"Patient/4567"},"valueCodeableConcept":{"coding":[{"system":"http://snomed.info/sct","code":"60001007","display":"Not pregnant"}]}}},{"fullUrl":"Observation/7cae2c8e-cc60-35f6-8980-dd6bc9e1f539","resource":{"resourceType":"Observation","id":"7cae2c8e-cc60-35f6-8980-dd6bc9e1f539","identifier":[{"use":"official","type":{"coding":[{"system":"http://loinc.org","code":"81959-9","display":"Public health laboratory ask at order entry panel"}]}}],"status":"final","code":{"coding":[{"system":"http://loinc.org","code":"95418-0","display":"Employed in a healthcare setting"}],"text":"Employed in a healthcare setting"},"subject":{"reference":"Patient/4567"},"valueCodeableConcept":{"coding":[{"system":"http://terminology.hl7.org/ValueSet/v2-0136","code":"N","display":"No"}]}}},{"fullUrl":"Observation/4403633f-899d-3042-8a3e-863c27bd57ae","resource":{"resourceType":"Observation","id":"4403633f-899d-3042-8a3e-863c27bd57ae","identifier":[{"use":"official","type":{"coding":[{"system":"http://loinc.org","code":"81959-9","display":"Public health laboratory ask at order entry panel"}]}}],"status":"final","code":{"coding":[{"system":"http://loinc.org","code":"77974-4","display":"Hospitalized for condition"}],"text":"Hospitalized for condition"},"subject":{"reference":"Patient/4567"},"valueCodeableConcept":{"coding":[{"system":"http://terminology.hl7.org/ValueSet/v2-0136","code":"N","display":"No"}]}}},{"fullUrl":"Observation/b903826a-06bc-3c2d-a0e1-3b9aed860f0a","resource":{"resourceType":"Observation","id":"b903826a-06bc-3c2d-a0e1-3b9aed860f0a","identifier":[{"use":"official","type":{"coding":[{"system":"http://loinc.org","code":"81959-9","display":"Public health laboratory ask at order entry panel"}]}}],"status":"final","code":{"coding":[{"system":"http://loinc.org","code":"95420-6","display":"Admitted to ICU for condition"}],"text":"Admitted to ICU for condition"},"subject":{"reference":"Patient/4567"},"valueCodeableConcept":{"coding":[{"system":"http://terminology.hl7.org/ValueSet/v2-0136","code":"N","display":"No"}]}}},{"fullUrl":"Observation/585761a1-2d41-3688-b5c7-9ae8535b4a67","resource":{"resourceType":"Observation","id":"585761a1-2d41-3688-b5c7-9ae8535b4a67","identifier":[{"use":"official","type":{"coding":[{"system":"http://loinc.org","code":"81959-9","display":"Public health laboratory ask at order entry panel"}]}}],"status":"final","code":{"coding":[{"system":"http://loinc.org","code":"95421-4","display":"Resides in a congregate care setting"}],"text":"Resides in a congregate care setting"},"subject":{"reference":"Patient/4567"},"valueCodeableConcept":{"coding":[{"system":"http://terminology.hl7.org/ValueSet/v2-0136","code":"N","display":"No"}]}}}]}
{"resourceType":"Bundle","identifier":{"value":"567"},"type":"message","timestamp":"2023-05-24T19:33:06.472Z","entry":[{"fullUrl":"MessageHeader/5db534ea-5e97-4861-ba18-d74acc46db15","resource":{"resourceType":"MessageHeader","id":"5db534ea-5e97-4861-ba18-d74acc46db15","meta":{"tag":[{"system":"http://terminology.hl7.org/CodeSystem/v2-0103","code":"P","display":"Production"}]},"eventCoding":{"system":"http://terminology.hl7.org/CodeSystem/v2-0003","code":"R01","display":"ORU/ACK - Unsolicited transmission of an observation message"},"destination":[{"name":"PRIME ReportStream","endpoint":"https://prime.cdc.gov/api/reports?option=SkipInvalidItems"}],"sender":{"reference":"Organization/12345000-0000-0000-0000-000000000000"},"source":{"extension":[{"url":"https://reportstream.cdc.gov/fhir/StructureDefinition/software-binary-id","valueString":"short-commit-id"},{"url":"https://reportstream.cdc.gov/fhir/StructureDefinition/software-install-date","valueInstant":"2023-02-08T21:33:06Z"},{"url":"https://reportstream.cdc.gov/fhir/StructureDefinition/software-vendor-org","valueReference":{"reference":"Organization/07640c5d-87cd-488b-9343-a226c5166539"}}],"software":"PRIME SimpleReport","version":"short-commit-id","endpoint":"https://simplereport.gov"},"focus":[{"reference":"Provenance/5db534ea-5e97-4861-ba18-d74acc46db15"},{"reference":"DiagnosticReport/567"}]}},{"fullUrl":"Provenance/5db534ea-5e97-4861-ba18-d74acc46db15","resource":{"resourceType":"Provenance","id":"5db534ea-5e97-4861-ba18-d74acc46db15","recorded":"2023-05-24T19:33:06.472Z","activity":{"coding":[{"system":"http://terminology.hl7.org/CodeSystem/v2-0003","code":"R01","display":"ORU/ACK - Unsolicited transmission of an observation message"}]},"agent":[{"who":{"reference":"Organization/12345000-0000-0000-0000-000000000000"}}]}},{"fullUrl":"DiagnosticReport/567","resource":{"resourceType":"DiagnosticReport","id":"567","identifier":[{"value":"567"}],"basedOn":[{"reference":"ServiceRequest/5db534ea-5e97-4861-ba18-d74acc46db15"}],"status":"final","code":{"coding":[{"system":"http://loinc.org","code":"94534-5","display":"SARS-CoV-2 (COVID-19) RNA panel - Respiratory specimen by NAA with probe detection"}]},"subject":{"reference":"Patient/4567"},"effectiveDateTime":"2021-12-23T14:00:00-06:00","issued":"2021-12-24T14:00:00-06:00","specimen":[{"reference":"Specimen/5db534ea-5e97-4861-ba18-d74acc46db15"}],"result":[{"reference":"Observation/5db534ea-5e97-4861-ba18-d74acc46db15"}]}},{"fullUrl":"Patient/4567","resource":{"resourceType":"Patient","id":"4567","extension":[{"url":"http://ibm.com/fhir/cdm/StructureDefinition/local-race-cd","valueCodeableConcept":{"coding":[{"system":"http://terminology.hl7.org/CodeSystem/v3-NullFlavor","code":"UNK"}],"text":"Unknown"}},{"url":"https://reportstream.cdc.gov/fhir/StructureDefinition/ethnic-group","valueCodeableConcept":{"coding":[{"system":"http://terminology.hl7.org/CodeSystem/v2-0189","code":"U","display":"unknown"}],"text":"unknown"}}],"identifier":[{"value":"4567"}],"name":[{"family":"Doe","given":["Janey"]}],"telecom":[{"system":"phone","value":"(205) 999 2800","use":"mobile"}],"gender":"female","birthDate":"1962-01-20","address":[{"line":["123 Main St"],"city":"Birmingham","district":"Jefferson","state":"AL","postalCode":"35226","country":"USA"}],"managingOrganization":{"reference":"Organization/12345000-0000-0000-0000-000000000000"}}},{"fullUrl":"Organization/12345000-0000-0000-0000-000000000000","resource":{"resourceType":"Organization","id":"12345000-0000-0000-0000-000000000000","identifier":[{"use":"official","type":{"coding":[{"system":"http://terminology.hl7.org/CodeSystem/v2-0301","code":"CLIA"}]},"value":"01D1058442"}],"name":"My Testing Lab","telecom":[{"system":"phone","value":"(205) 888 2000","use":"work"}],"address":[{"line":["300 North Street"],"city":"Birmingham","state":"AL","postalCode":"35228","country":"USA"}]}},{"fullUrl":"Organization/5db534ea-5e97-4861-ba18-d74acc46db15","resource":{"resourceType":"Organization","id":"5db534ea-5e97-4861-ba18-d74acc46db15","identifier":[{"use":"official","type":{"coding":[{"system":"http://terminology.hl7.org/CodeSystem/v2-0301","code":"CLIA"}]},"value":"01D1058442"}],"name":"My Urgent Care","telecom":[{"system":"phone","value":"(205) 888 2000","use":"work"}],"address":[{"line":["400 Main Street","Suite 100"],"city":"Birmingham","state":"AL","postalCode":"35228","country":"USA"}]}},{"fullUrl":"Practitioner/1013012657","resource":{"resourceType":"Practitioner","id":"1013012657","identifier":[{"system":"http://hl7.org/fhir/sid/us-npi","value":"1013012657"}],"name":[{"family":"Smith MD","given":["John"]}],"telecom":[{"system":"phone","value":"(205) 888 2000","use":"work"}],"address":[{"line":["400 Main Street"],"city":"Birmingham","state":"AL","postalCode":"35228","country":"USA"}]}},{"fullUrl":"Specimen/5db534ea-5e97-4861-ba18-d74acc46db15","resource":{"resourceType":"Specimen","id":"5db534ea-5e97-4861-ba18-d74acc46db15","identifier":[{"value":"5db534ea-5e97-4861-ba18-d74acc46db15"}],"type":{"coding":[{"system":"http://snomed.info/sct","code":"445297001"}],"text":"Nasal swab"},"subject":{"reference":"Patient/4567"},"receivedTime":"2021-12-22T14:00:00-06:00","collection":{"collectedDateTime":"2021-12-21T14:00:00-06:00","bodySite":{"coding":[{"system":"http://snomed.info/sct","code":"87100004"}],"text":"Topography unknown (body structure)"}}}},{"fullUrl":"ServiceRequest/5db534ea-5e97-4861-ba18-d74acc46db15","resource":{"resourceType":"ServiceRequest","id":"5db534ea-5e97-4861-ba18-d74acc46db15","extension":[{"url":"https://reportstream.cdc.gov/fhir/StructureDefinition/order-control","valueCodeableConcept":{"coding":[{"system":"http://terminology.hl7.org/CodeSystem/v2-0119","code":"RE"}]}},{"url":"https://reportstream.cdc.gov/fhir/StructureDefinition/order-effective-date","valueDateTime":"2021-12-20T14:00:00-06:00"}],"status":"completed","intent":"order","code":{"coding":[{"system":"http://loinc.org","code":"94534-5"}]},"subject":{"reference":"Patient/4567"},"requester":{"reference":"PractitionerRole/5db534ea-5e97-4861-ba18-d74acc46db15"},"performer":[{"reference":"Organization/12345000-0000-0000-0000-000000000000"}],"supportingInfo":[{"reference":"Observation/b1e252e3-6d94-3123-91f5-2df61a166812"},{"reference":"Observation/07099f95-8754-3317-8e87-e1c4717c1af1"},{"reference":"Observation/7cae2c8e-cc60-35f6-8980-dd6bc9e1f539"},{"reference":"Observation/4403633f-899d-3042-8a3e-863c27bd57ae"},{"reference":"Observation/b903826a-06bc-3c2d-a0e1-3b9aed860f0a"},{"reference":"Observation/585761a1-2d41-3688-b5c7-9ae8535b4a67"}],"note":[{"extension":[{"url":"https://reportstream.cdc.gov/fhir/StructureDefinition/note-type","valueCodeableConcept":{"coding":[{"extension":[{"url":"https://reportstream.cdc.gov/fhir/StructureDefinition/code-index-name","valueString":"identifier"}],"system":"HL70364","version":"2.5.1","code":"RE","display":"Remark"}]}}],"text":"Test Comment 5"}]}},{"fullUrl":"Device/5db534ea-5e97-4861-ba18-d74acc46db15","resource":{"resourceType":"Device","id":"5db534ea-5e97-4861-ba18-d74acc46db15","identifier":[{"value":"543212134"},{"type":{"coding":[{"code":"MNI"}]}}],"manufacturer":"Acme","deviceName":[{"name":"ID NOW","type":"model-name"}]}},{"fullUrl":"PractitionerRole/5db534ea-5e97-4861-ba18-d74acc46db15","resource":{"resourceType":"PractitionerRole","id":"5db534ea-5e97-4861-ba18-d74acc46db15","practitioner":{"reference":"Practitioner/1013012657"},"organization":{"reference":"Organization/5db534ea-5e97-4861-ba18-d74acc46db15"}}},{"fullUrl":"Organization/07640c5d-87cd-488b-9343-a226c5166539","resource":{"resourceType":"Organization","id":"07640c5d-87cd-488b-9343-a226c5166539","name":"SimpleReport"}},{"fullUrl":"Observation/5db534ea-5e97-4861-ba18-d74acc46db15","resource":{"resourceType":"Observation","id":"5db534ea-5e97-4861-ba18-d74acc46db15","status":"final","code":{"coding":[{"system":"http://loinc.org","code":"94534-5","display":"SARS coronavirus 2 RNA [Presence] in Respiratory specimen by NAA with probe detection"}],"text":"COVID-19"},"subject":{"reference":"Patient/4567"},"issued":"2021-12-23T20:00:00.000Z","performer":[{"reference":"Organization/12345000-0000-0000-0000-000000000000"}],"valueCodeableConcept":{"coding":[{"system":"http://snomed.info/sct","code":"455371000124106","display":"Invalid result"}]},"interpretation":[{"coding":[{"system":"http://terminology.hl7.org/CodeSystem/v2-0078","code":"N","display":"Normal"}]}],"method":{"extension":[{"url":"https://reportstream.cdc.gov/fhir/StructureDefinition/testkit-name-id","valueCoding":{"code":"BOOMX2"}}],"coding":[{"display":"ID NOW"}]},"specimen":{"reference":"Specimen/5db534ea-5e97-4861-ba18-d74acc46db15"},"device":{"reference":"Device/5db534ea-5e97-4861-ba18-d74acc46db15"}}},{"fullUrl":"Observation/b1e252e3-6d94-3123-91f5-2df61a166812","resource":{"resourceType":"Observation","id":"b1e252e3-6d94-3123-91f5-2df61a166812","identifier":[{"use":"official","type":{"coding":[{"system":"http://loinc.org","code":"81959-9","display":"Public health laboratory ask at order entry panel"}]}}],"status":"final","code":{"coding":[{"system":"http://loinc.org","code":"95419-8","display":"Has symptoms related to condition of interest"}],"text":"Has symptoms related to condition of interest"},"subject":{"reference":"Patient/4567"},"valueCodeableConcept":{"coding":[{"system":"http://terminology.hl7.org/ValueSet/v2-0136","code":"N","display":"No"}]}}},{"fullUrl":"Observation/07099f95-8754-3317-8e87-e1c4717c1af1","resource":{"resourceType":"Observation","id":"07099f95-8754-3317-8e87-e1c4717c1af1","identifier":[{"use":"official","type":{"coding":[{"system":"http://loinc.org","code":"81959-9","display":"Public health laboratory ask at order entry panel"}]}}],"status":"final","code":{"coding":[{"system":"http://loinc.org","code":"82810-3","display":"Pregnancy status"}],"text":"Pregnancy status"},"subject":{"reference":"Patient/4567"},"valueCodeableConcept":{"coding":[{"system":"http://snomed.info/sct","code":"102874004","display":"Unknown"}]}}},{"fullUrl":"Observation/7cae2c8e-cc60-35f6-8980-dd6bc9e1f539","resource":{"resourceType":"Observation","id":"7cae2c8e-cc60-35f6-8980-dd6bc9e1f539","identifier":[{"use":"official","type":{"coding":[{"system":"http://loinc.org","code":"81959-9","display":"Public health laboratory ask at order entry panel"}]}}],"status":"final","code":{"coding":[{"system":"http://loinc.org","code":"95418-0","display":"Employed in a healthcare setting"}],"text":"Employed in a healthcare setting"},"subject":{"reference":"Patient/4567"},"valueCodeableConcept":{"coding":[{"system":"http://terminology.hl7.org/ValueSet/v2-0136","code":"N","display":"No"}]}}},{"fullUrl":"Observation/4403633f-899d-3042-8a3e-863c27bd57ae","resource":{"resourceType":"Observation","id":"4403633f-899d-3042-8a3e-863c27bd57ae","identifier":[{"use":"official","type":{"coding":[{"system":"http://loinc.org","code":"81959-9","display":"Public health laboratory ask at order entry panel"}]}}],"status":"final","code":{"coding":[{"system":"http://loinc.org","code":"77974-4","display":"Hospitalized for condition"}],"text":"Hospitalized for condition"},"subject":{"reference":"Patient/4567"},"valueCodeableConcept":{"coding":[{"system":"http://terminology.hl7.org/ValueSet/v2-0136","code":"Y","display":"Yes"}]}}},{"fullUrl":"Observation/b903826a-06bc-3c2d-a0e1-3b9aed860f0a","resource":{"resourceType":"Observation","id":"b903826a-06bc-3c2d-a0e1-3b9aed860f0a","identifier":[{"use":"official","type":{"coding":[{"system":"http://loinc.org","code":"81959-9","display":"Public health laboratory ask at order entry panel"}]}}],"status":"final","code":{"coding":[{"system":"http://loinc.org","code":"95420-6","display":"Admitted to ICU for condition"}],"text":"Admitted to ICU for condition"},"subject":{"reference":"Patient/4567"},"valueCodeableConcept":{"coding":[{"system":"http://terminology.hl7.org/ValueSet/v2-0136","code":"N","display":"No"}]}}},{"fullUrl":"Observation/585761a1-2d41-3688-b5c7-9ae8535b4a67","resource":{"resourceType":"Observation","id":"585761a1-2d41-3688-b5c7-9ae8535b4a67","identifier":[{"use":"official","type":{"coding":[{"system":"http://loinc.org","code":"81959-9","display":"Public health laboratory ask at order entry panel"}]}}],"status":"final","code":{"coding":[{"system":"http://loinc.org","code":"95421-4","display":"Resides in a congregate care setting"}],"text":"Resides in a congregate care setting"},"subject":{"reference":"Patient/4567"},"valueCodeableConcept":{"coding":[{"system":"http://terminology.hl7.org/CodeSystem/v3-NullFlavor","code":"UNK","display":"unknown"}]}}}]}
{"resourceType":"Bundle","identifier":{"value":"678"},"type":"message","timestamp":"2023-05-24T19:33:06.472Z","entry":[{"fullUrl":"MessageHeader/5db534ea-5e97-4861-ba18-d74acc46db15","resource":{"resourceType":"MessageHeader","id":"5db534ea-5e97-4861-ba18-d74acc46db15","meta":{"tag":[{"system":"http://terminology.hl7.org/CodeSystem/v2-0103","code":"P","display":"Production"}]},"eventCoding":{"system":"http://terminology.hl7.org/CodeSystem/v2-0003","code":"R01","display":"ORU/ACK - Unsolicited transmission of an observation message"},"destination":[{"name":"PRIME ReportStream","endpoint":"https://prime.cdc.gov/api/reports?option=SkipInvalidItems"}],"sender":{"reference":"Organization/12345000-0000-0000-0000-000000000000"},"source":{"extension":[{"url":"https://reportstream.cdc.gov/fhir/StructureDefinition/software-binary-id","valueString":"short-commit-id"},{"url":"https://reportstream.cdc.gov/fhir/StructureDefinition/software-install-date","valueInstant":"2023-02-08T21:33:06Z"},{"url":"https://reportstream.cdc.gov/fhir/StructureDefinition/software-vendor-org","valueReference":{"reference":"Organization/07640c5d-87cd-488b-9343-a226c5166539"}}],"software":"PRIME SimpleReport","version":"short-commit-id","endpoint":"https://simplereport.gov"},"focus":[{"reference":"Provenance/5db534ea-5e97-4861-ba18-d74acc46db15"},{"reference":"DiagnosticReport/678"}]}},{"fullUrl":"Provenance/5db534ea-5e97-4861-ba18-d74acc46db15","resource":{"resourceType":"Provenance","id":"5db534ea-5e97-4861-ba18-d74acc46db15","recorded":"2023-05-24T19:33:06.472Z","activity":{"coding":[{"system":"http://terminology.hl7.org/CodeSystem/v2-0003","code":"R01","display":"ORU/ACK - Unsolicited transmission of an observation message"}]},"agent":[{"who":{"reference":"Organization/12345000-0000-0000-0000-000000000000"}}]}},{"fullUrl":"DiagnosticReport/678","resource":{"resourceType":"DiagnosticReport","id":"678","identifier":[{"value":"678"}],"basedOn":[{"reference":"ServiceRequest/5db534ea-5e97-4861-ba18-d74acc46db15"}],"status":"final","code":{"coding":[{"system":"http://loinc.org","code":"94534-5","display":"SARS-CoV-2 (COVID-19) RNA panel - Respiratory specimen by NAA with probe detection"}]},"subject":{"reference":"Patient/4567"},"effectiveDateTime":"2021-12-23T14:00:00-06:00","issued":"2021-12-24T14:00:00-06:00","specimen":[{"reference":"Specimen/5db534ea-5e97-4861-ba18-d74acc46db15"}],"result":[{"reference":"Observation/5db534ea-5e97-4861-ba18-d74acc46db15"}]}},{"fullUrl":"Patient/4567","resource":{"resourceType":"Patient","id":"4567","extension":[{"url":"http://ibm.com/fhir/cdm/StructureDefinition/local-race-cd","valueCodeableConcept":{"coding":[{"system":"http://terminology.hl7.org/CodeSystem/v3-Race","code":"2131-1"}],"text":"other"}},{"url":"https://reportstream.cdc.gov/fhir/StructureDefinition/ethnic-group","valueCodeableConcept":{"coding":[{"system":"http://terminology.hl7.org/CodeSystem/v2-0189","code":"N","display":"Not Hispanic or Latino"}],"text":"Not Hispanic or Latino"}}],"identifier":[{"value":"4567"}],"name":[{"family":"Doe","given":["Janey"]}],"telecom":[{"system":"phone","value":"(205) 999 2800","use":"mobile"}],"gender":"female","birthDate":"1962-01-20","address":[{"line":["123 Main St"],"city":"Birmingham","district":"Jefferson","state":"AL","postalCode":"35226","country":"USA"}],"managingOrganization":{"reference":"Organization/12345000-0000-0000-0000-000000000000"}}},{"fullUrl":"Organization/12345000-0000-0000-0000-000000000000","resource":{"resourceType":"Organization","id":"12345000-0000-0000-0000-000000000000","identifier":[{"use":"official","type":{"coding":[{"system":"http://terminology.hl7.org/CodeSystem/v2-0301","code":"CLIA"}]},"value":"01D1058442"}],"name":"My Testing Lab","telecom":[{"system":"phone","value":"(205) 888 2000","use":"work"}],"address":[{"line":["300 North Street"],"city":"Birmingham","state":"AL","postalCode":"35228","country":"USA"}]}},{"fullUrl":"Organization/5db534ea-5e97-4861-ba18-d74acc46db15","resource":{"resourceType":"Organization","id":"5db534ea-5e97-4861-ba18-d74acc46db15","identifier":[{"use":"official","type":{"coding":[{"system":"http://terminology.hl7.org/CodeSystem/v2-0301","code":"CLIA"}]},"value":"01D1058442"}],"name":"My Urgent Care","telecom":[{"system":"phone","value":"(205) 888 2000","use":"work"}],"address":[{"line":["400 Main Street","Suite 100"],"city":"Birmingham","state":"AL","postalCode":"35228","country":"USA"}]}},{"fullUrl":"Practitioner/1013012657","resource":{"resourceType":"Practitioner","id":"1013012657","identifier":[{"system":"http://hl7.org/fhir/sid/us-npi","value":"1013012657"}],"name":[{"family":"Smith MD","given":["John"]}],"telecom":[{"system":"phone","value":"(205) 888 2000","use":"work"}],"address":[{"line":["400 Main Street"],"city":"Birmingham","state":"AL","postalCode":"35228","country":"USA"}]}},{"fullUrl":"Specimen/5db534ea-5e97-4861-ba18-d74acc46db15","resource":{"resourceType":"Specimen","id":"5db534ea-5e97-4861-ba18-d74acc46db15","identifier":[{"value":"5db534ea-5e97-4861-ba18-d74acc46db15"}],"type":{"coding":[{"system":"http://snomed.info/sct","code":"445297001"}],"text":"Nasal swab"},"subject":{"reference":"Patient/4567"},"receivedTime":"2021-12-22T14:00:00-06:00","collection":{"collectedDateTime":"2021-12-21T14:00:00-06:00","bodySite":{"coding":[{"system":"http://snomed.info/sct","code":"87100004"}],"text":"Topography unknown (body structure)"}}}},{"fullUrl":"ServiceRequest/5db534ea-5e97-4861-ba18-d74acc46db15","resource":{"resourceType":"ServiceRequest","id":"5db534ea-5e97-4861-ba18-d74acc46db15","extension":[{"url":"https://reportstream.cdc.gov/fhir/StructureDefinition/order-control","valueCodeableConcept":{"coding":[{"system":"http://terminology.hl7.org/CodeSystem/v2-0119","code":"RE"}]}},{"url":"https://reportstream.cdc.gov/fhir/StructureDefinition/order-effective-date","valueDateTime":"2021-12-20T14:00:00-06:00"}],"status":"completed","intent":"order","code":{"coding":[{"system":"http://loinc.org","code":"94534-5"}]},"subject":{"reference":"Patient/4567"},"requester":{"reference":"PractitionerRole/5db534ea-5e97-4861-ba18-d74acc46db15"},"performer":[{"reference":"Organization/12345000-0000-0000-0000-000000000000"}],"supportingInfo":[{"reference":"Observation/a65bbde7-854d-3151-b46b-731badba996b"},{"reference":"Observation/07099f95-8754-3317-8e87-e1c4717c1af1"},{"reference":"Observation/7cae2c8e-cc60-35f6-8980-dd6bc9e1f539"},{"reference":"Observation/4403633f-899d-3042-8a3e-863c27bd57ae"},{"reference":"Observation/b903826a-06bc-3c2d-a0e1-3b9aed860f0a"},{"reference":"Observation/585761a1-2d41-3688-b5c7-9ae8535b4a67"}],"note":[{"extension":[{"url":"https://reportstream.cdc.gov/fhir/StructureDefinition/note-type","valueCodeableConcept":{"coding":[{"extension":[{"url":"https://reportstream.cdc.gov/fhir/StructureDefinition/code-index-name","valueString":"identifier"}],"system":"HL70364","version":"2.5.1","code":"RE","display":"Remark"}]}}],"text":"Test Comment 6"}]}},{"fullUrl":"Device/5db534ea-5e97-4861-ba18-d74acc46db15","resource":{"resourceType":"Device","id":"5db534ea-5e97-4861-ba18-d74acc46db15","identifier":[{"value":"543212134"},{"type":{"coding":[{"code":"MNI"}]}}],"manufacturer":"Acme","deviceName":[{"name":"ID NOW","type":"model-name"}]}},{"fullUrl":"PractitionerRole/5db534ea-5e97-4861-ba18-d74acc46db15","resource":{"resourceType":"PractitionerRole","id":"5db534ea-5e97-4861-ba18-d74acc46db15","practitioner":{"reference":"Practitioner/1013012657"},"organization":{"reference":"Organization/5db534ea-5e97-4861-ba18-d74acc46db15"}}},{"fullUrl":"Organization/07640c5d-87cd-488b-9343-a226c5166539","resource":{"resourceType":"Organization","id":"07640c5d-87cd-488b-9343-a226c5166539","name":"SimpleReport"}},{"fullUrl":"Observation/5db534ea-5e97-4861-ba18-d74acc46db15","resource":{"resourceType":"Observation","id":"5db534ea-5e97-4861-ba18-d74acc46db15","status":"final","code":{"coding":[{"system":"http://loinc.org","code":"94534-5","display":"SARS coronavirus 2 RNA [Presence] in Respiratory specimen by NAA with probe detection"}],"text":"COVID-19"},"subject":{"reference":"Patient/4567"},"issued":"2021-12-23T20:00:00.000Z","performer":[{"reference":"Organization/12345000-0000-0000-0000-000000000000"}],"valueCodeableConcept":{"coding":[{"system":"http://snomed.info/sct","code":"260373001","display":"Detected"}]},"interpretation":[{"coding":[{"system":"http://terminology.hl7.org/CodeSystem/v2-0078","code":"A","display":"Abnormal"}]}],"method":{"extension":[{"url":"https://reportstream.cdc.gov/fhir/StructureDefinition/testkit-name-id","valueCoding":{"code":"BOOMX2"}}],"coding":[{"display":"ID NOW"}]},"specimen":{"reference":"Specimen/5db534ea-5e97-4861-ba18-d74acc46db15"},"device":{"reference":"Device/5db534ea-5e97-4861-ba18-d74acc46db15"}}},{"fullUrl":"Observation/a65bbde7-854d-3151-b46b-731badba996b","resource":{"resourceType":"Observation","id":"a65bbde7-854d-3151-b46b-731badba996b","identifier":[{"use":"official","type":{"coding":[{"system":"http://loinc.org","code":"81959-9","display":"Public health laboratory ask at order entry panel"}]}}],"status":"final","code":{"coding":[{"system":"http://loinc.org","code":"95419-8","display":"Has symptoms related to condition of interest"}],"text":"Has symptoms related to condition of interest"},"subject":{"reference":"Patient/4567"},"valueCodeableConcept":{"coding":[{"system":"http://terminology.hl7.org/CodeSystem/v3-NullFlavor","code":"UNK","display":"unknown"}]}}},{"fullUrl":"Observation/07099f95-8754-3317-8e87-e1c4717c1af1","resource":{"resourceType":"Observation","id":"07099f95-8754-3317-8e87-e1c4717c1af1","identifier":[{"use":"official","type":{"coding":[{"system":"http://loinc.org","code":"81959-9","display":"Public health laboratory ask at order entry panel"}]}}],"status":"final","code":{"coding":[{"system":"http://loinc.org","code":"82810-3","display":"Pregnancy status"}],"text":"Pregnancy status"},"subject":{"reference":"Patient/4567"},"valueCodeableConcept":{"coding":[{"system":"http://snomed.info/sct","code":"60001007","display":"Not pregnant"}]}}},{"fullUrl":"Observation/7cae2c8e-cc60-35f6-8980-dd6bc9e1f539","resource":{"resourceType":"Observation","id":"7cae2c8e-cc60-35f6-8980-dd6bc9e1f539","identifier":[{"use":"official","type":{"coding":[{"system":"http://loinc.org","code":"81959-9","display":"Public health laboratory ask at order entry panel"}]}}],"status":"final","code":{"coding":[{"system":"http://loinc.org","code":"95418-0","display":"Employed in a healthcare setting"}],"text":"Employed in a healthcare setting"},"subject":{"reference":"Patient/4567"},"valueCodeableConcept":{"coding":[{"system":"http://terminology.hl7.org/ValueSet/v2-0136","code":"N","display":"No"}]}}},{"fullUrl":"Observation/4403633f-899d-3042-8a3e-863c27bd57ae","resource":{"resourceType":"Observation","id":"4403633f-899d-3042-8a3e-863c27bd57ae","identifier":[{"use":"official","type":{"coding":[{"system":"http://loinc.org","code":"81959-9","display":"Public health laboratory ask at order entry panel"}]}}],"status":"final","code":{"coding":[{"system":"http://loinc.org","code":"77974-4","display":"Hospitalized for condition"}],"text":"Hospitalized for condition"},"subject":{"reference":"Patient/4567"},"valueCodeableConcept":{"coding":[{"system":"http://terminology.hl7.org/ValueSet/v2-0136","code":"N","display":"No"}]}}},{"fullUrl":"Observation/b903826a-06bc-3c2d-a0e1-3b9aed860f0a","resource":{"resourceType":"Observation","id":"b903826a-06bc-3c2d-a0e1-3b9aed860f0a","identifier":[{"use":"official","type":{"coding":[{"system":"http://loinc.org","code":"81959-9","display":"Public health laboratory ask at order entry panel"}]}}],"status":"final","code":{"coding":[{"system":"http://loinc.org","code":"95420-6","display":"Admitted to ICU for condition"}],"text":"Admitted to ICU for condition"},"subject":{"reference":"Patient/4567"},"valueCodeableConcept":{"coding":[{"system":"http://terminology.hl7.org/ValueSet/v2-0136","code":"N","display":"No"}]}}},{"fullUrl":"Observation/585761a1-2d41-3688-b5c7-9ae8535b4a67","resource":{"resourceType":"Observation","id":"585761a1-2d41-3688-b5c7-9ae8535b4a67","identifier":[{"use":"official","type":{"coding":[{"system":"http://loinc.org","code":"81959-9","display":"Public health laboratory ask at order entry panel"}]}}],"status":"final","code":{"coding":[{"system":"http://loinc.org","code":"95421-4","display":"Resides in a congregate care setting"}],"text":"Resides in a congregate care setting"},"subject":{"reference":"Patient/4567"},"valueCodeableConcept":{"coding":[{"system":"http://terminology.hl7.org/ValueSet/v2-0136","code":"N","display":"No"}]}}}]}