{
  "resourceType":"Bundle",
  "type":"message",
  "entry":[
    {
      "fullUrl":"MessageHeader/$MESSAGE_HEADER_ID",
      "resource":{
        "resourceType":"MessageHeader",
        "id":"$MESSAGE_HEADER_ID",
        "eventCoding":{
          "system":"http://terminology.hl7.org/CodeSystem/v2-0003",
          "code":"R01",
          "display":"ORU/ACK - Unsolicited transmission of an observation message"
        },
        "destination":[
          {
            "name":"PRIME ReportStream",
            "endpoint":"https://prime.cdc.gov/api/reports?option=SkipInvalidItems"
          }
        ],
        "sender":{
          "reference":"Organization/1c3d14b9-e222-4a16-9fb2-d9f173034a6a"
        },
        "source":{
          "software":"PRIME SimpleReport",
          "endpoint":"https://simplereport.gov"
        },
        "focus":[
          {
            "reference": "Provenance/$PROVENANCE_ID"
          },
          {
            "reference":"DiagnosticReport/45e9539f-c9a4-4c86-b79d-4ba2c43f9ee0"
          }
        ]
      }
    },
    {
      "fullUrl": "Provenance/$PROVENANCE_ID",
      "resource": {
        "resourceType": "Provenance",
        "id": "$PROVENANCE_ID",
        "target": [
          {
            "reference": "Device/48aabd5f-a591-4e0e-9fa2-301d3d5a6df4"
          }
        ],
        "activity": {
          "coding": [
            {
              "system": "http://terminology.hl7.org/CodeSystem/v2-0003",
              "code": "R01",
              "display": "ORU/ACK - Unsolicited transmission of an observation message"
            }
          ]
        },
        "agent": [
          {
            "who": {
              "reference": "Organization/1c3d14b9-e222-4a16-9fb2-d9f173034a6a"
            }
          }
        ]
      }
    },
    {
      "fullUrl":"DiagnosticReport/45e9539f-c9a4-4c86-b79d-4ba2c43f9ee0",
      "resource":{
        "resourceType":"DiagnosticReport",
        "id":"45e9539f-c9a4-4c86-b79d-4ba2c43f9ee0",
        "basedOn":[
          {
            "reference":"ServiceRequest/cae01b8c-37dc-4c09-a6d4-ae7bcafc9720"
          }
        ],
        "status":"final",
        "code":{
          "coding":[
            {
              "system":"http://loinc.org",
              "code":"loinc"
            }
          ]
        },
        "subject":{
          "reference":"Patient/55c53ed2-add5-47fb-884e-b4542ee64589"
        },
        "specimen":[
          {
            "reference":"Specimen/725252ea-50ef-46bd-ae79-c70e1d04b949"
          }
        ],
        "result":[
          {
            "reference":"Observation/6db25889-09cb-4127-9330-cc7e7459c1cd"
          },
          {
            "reference":"Observation/4163abc1-0a54-4aff-badb-87bb96a89470"
          },
          {
            "reference":"Observation/f7184a68-c54e-4209-8cc6-5bf5b253e4bd"
          }
        ]
      }
    },
    {
      "fullUrl":"Patient/55c53ed2-add5-47fb-884e-b4542ee64589",
      "resource":{
        "resourceType":"Patient",
        "id":"55c53ed2-add5-47fb-884e-b4542ee64589",
        "extension":[
          {
            "url":"http://ibm.com/fhir/cdm/StructureDefinition/local-race-cd",
            "valueCodeableConcept":{
              "coding":[
                {
                  "system":"http://terminology.hl7.org/CodeSystem/v3-Race",
                  "code":"2054-5"
                }
              ],
              "text":"black"
            }
          },
          {
            "url":"http://hl7.org/fhir/us/core/StructureDefinition/us-core-ethnicity",
            "extension":[
              {
                "url":"ombCategory",
                "valueCoding":{
                  "system":"http://terminology.hl7.org/CodeSystem/v3-NullFlavor",
                  "code":"UNK",
                  "display":"unknown"
                }
              },
              {
                "url":"text",
                "valueString":"unknown"
              }
            ]
          }
        ],
        "name":[
          {
            "family":"Jordan",
            "given":[
              "Tracy"
            ]
          }
        ],
        "telecom":[
          {
            "system":"phone",
            "value":"(773) 555 1234",
            "use":"home"
          },
          {
            "system":"email",
            "value":"tj@example.com"
          }
        ],
        "gender":"male",
        "birthDate":"2022-12-13",
        "address":[
          {
            "line":[
              "1 Main St"
            ],
            "city":"Chicago",
            "state":"IL",
            "postalCode":"60614"
          }
        ],
        "managingOrganization":{
          "reference":"Organization/1c3d14b9-e222-4a16-9fb2-d9f173034a6a"
        }
      }
    },
    {
      "fullUrl":"Organization/1c3d14b9-e222-4a16-9fb2-d9f173034a6a",
      "resource":{
        "resourceType":"Organization",
        "id":"1c3d14b9-e222-4a16-9fb2-d9f173034a6a",
        "name":"School",
        "telecom":[
          {
            "system":"phone",
            "value":"(773) 555 1234",
            "use":"work"
          },
          {
            "system":"email",
            "value":"school@example.com"
          }
        ],
        "address":[
          {
            "line":[
              "1 Main St"
            ],
            "city":"Chicago",
            "state":"IL",
            "postalCode":"60614"
          }
        ]
      }
    },
    {
      "fullUrl":"Practitioner/ffc07f31-f2af-4728-a247-8cb3aa05ccd0",
      "resource":{
        "resourceType":"Practitioner",
        "id":"ffc07f31-f2af-4728-a247-8cb3aa05ccd0",
        "name":[
          {
            "family":"Quinn",
            "given":[
              "Michaela"
            ]
          }
        ],
        "telecom":[
          {
            "system":"phone",
            "value":"(773) 555 1235",
            "use":"work"
          }
        ],
        "address":[
          {
            "line":[
              "1 Main St"
            ],
            "city":"Chicago",
            "state":"IL",
            "postalCode":"60614"
          }
        ]
      }
    },
    {
      "fullUrl":"Specimen/725252ea-50ef-46bd-ae79-c70e1d04b949",
      "resource":{
        "resourceType":"Specimen",
        "id":"725252ea-50ef-46bd-ae79-c70e1d04b949",
        "type":{
          "coding":[
            {
              "system":"http://snomed.info/sct",
              "code":"typeCode"
            }
          ],
          "text":"name"
        },
        "subject":{
          "reference":"Patient/55c53ed2-add5-47fb-884e-b4542ee64589"
        }
      }
    },
    {
      "fullUrl":"ServiceRequest/cae01b8c-37dc-4c09-a6d4-ae7bcafc9720",
      "resource":{
        "resourceType":"ServiceRequest",
        "id":"cae01b8c-37dc-4c09-a6d4-ae7bcafc9720",
        "status":"active",
        "intent":"order",
        "code":{
          "coding":[
            {
              "system":"http://loinc.org",
              "code":"loinc"
            }
          ]
        },
        "subject":{
          "reference":"Patient/55c53ed2-add5-47fb-884e-b4542ee64589"
        },
        "requester":{
          "reference":"PractitionerRole/$PRACTITIONER_ROLE_ID"
        },
        "performer":[
          {
            "reference":"Organization/1c3d14b9-e222-4a16-9fb2-d9f173034a6a"
          }
        ]
      }
    },
    {
      "fullUrl":"Device/48aabd5f-a591-4e0e-9fa2-301d3d5a6df4",
      "resource":{
        "resourceType":"Device",
        "id":"48aabd5f-a591-4e0e-9fa2-301d3d5a6df4",
        "manufacturer":"manufacturer",
        "deviceName":[
          {
            "name":"model",
            "type":"model-name"
          }
        ]
      }
    },
    {
      "fullUrl":"PractitionerRole/$PRACTITIONER_ROLE_ID",
      "resource":{
        "resourceType":"PractitionerRole",
        "id":"$PRACTITIONER_ROLE_ID",
        "practitioner":{
          "reference":"Practitioner/ffc07f31-f2af-4728-a247-8cb3aa05ccd0"
        },
        "organization":{
          "reference":"Organization/1c3d14b9-e222-4a16-9fb2-d9f173034a6a"
        }
      }
    },
    {
      "fullUrl":"Observation/6db25889-09cb-4127-9330-cc7e7459c1cd",
      "resource":{
        "resourceType":"Observation",
        "id":"6db25889-09cb-4127-9330-cc7e7459c1cd",
        "status":"final",
        "code":{
          "coding":[
            {
              "system":"http://loinc.org"
            }
          ]
        },
        "subject":{
          "reference":"Patient/55c53ed2-add5-47fb-884e-b4542ee64589"
        },
        "performer":[
          {
            "reference":"Organization/1c3d14b9-e222-4a16-9fb2-d9f173034a6a"
          }
        ],
        "valueCodeableConcept":{
          "coding":[
            {
              "system":"http://snomed.info/sct",
              "code":"455371000124106"
            }
          ]
        },
        "specimen":{
          "reference":"Specimen/725252ea-50ef-46bd-ae79-c70e1d04b949"
        },
        "device":{
          "reference":"Device/48aabd5f-a591-4e0e-9fa2-301d3d5a6df4"
        }
      }
    },
    {
      "fullUrl":"Observation/4163abc1-0a54-4aff-badb-87bb96a89470",
      "resource":{
        "resourceType":"Observation",
        "id":"4163abc1-0a54-4aff-badb-87bb96a89470",
        "status":"final",
        "code":{
          "coding":[
            {
              "system":"http://loinc.org"
            }
          ]
        },
        "subject":{
          "reference":"Patient/55c53ed2-add5-47fb-884e-b4542ee64589"
        },
        "performer":[
          {
            "reference":"Organization/1c3d14b9-e222-4a16-9fb2-d9f173034a6a"
          }
        ],
        "valueCodeableConcept":{
          "coding":[
            {
              "system":"http://snomed.info/sct",
              "code":"260373001"
            }
          ]
        },
        "specimen":{
          "reference":"Specimen/725252ea-50ef-46bd-ae79-c70e1d04b949"
        },
        "device":{
          "reference":"Device/48aabd5f-a591-4e0e-9fa2-301d3d5a6df4"
        }
      }
    },
    {
      "fullUrl":"Observation/f7184a68-c54e-4209-8cc6-5bf5b253e4bd",
      "resource":{
        "resourceType":"Observation",
        "id":"f7184a68-c54e-4209-8cc6-5bf5b253e4bd",
        "status":"final",
        "code":{
          "coding":[
            {
              "system":"http://loinc.org"
            }
          ]
        },
        "subject":{
          "reference":"Patient/55c53ed2-add5-47fb-884e-b4542ee64589"
        },
        "performer":[
          {
            "reference":"Organization/1c3d14b9-e222-4a16-9fb2-d9f173034a6a"
          }
        ],
        "valueCodeableConcept":{
          "coding":[
            {
              "system":"http://snomed.info/sct",
              "code":"260415000"
            }
          ]
        },
        "specimen":{
          "reference":"Specimen/725252ea-50ef-46bd-ae79-c70e1d04b949"
        },
        "device":{
          "reference":"Device/48aabd5f-a591-4e0e-9fa2-301d3d5a6df4"
        }
      }
    }
  ]
}