{
  "resourceType" : "Bundle",
  "identifier" : {
    "value" : "42daf9c8-9deb-4636-a040-380bde2b44cd"
  },
  "type" : "message",
  "timestamp" : "2023-05-24T19:33:06.472Z",
  "entry" : [ {
    "fullUrl" : "MessageHeader/5c5cc8fd-7001-4ac2-9340-541d065eca87",
    "resource" : {
      "resourceType" : "MessageHeader",
      "id" : "5c5cc8fd-7001-4ac2-9340-541d065eca87",
      "meta" : {
        "tag" : [ {
          "system" : "http://terminology.hl7.org/CodeSystem/v2-0103",
          "code" : "P",
          "display" : "Production"
        } ]
      },
      "eventCoding" : {
        "system" : "http://terminology.hl7.org/CodeSystem/v2-0003",
        "code" : "R01",
        "display" : "ORU/ACK - Unsolicited transmission of an observation message"
      },
      "destination" : [ {
        "name" : "PRIME ReportStream",
        "endpoint" : "https://prime.cdc.gov/api/reports?option=SkipInvalidItems"
      } ],
      "sender" : {
        "reference" : "${json-unit.regex}Organization/[0-9a-f]{8}-[0-9a-f]{4}-[0-9a-f]{4}-[0-9a-f]{4}-[0-9a-f]{12}"
      },
      "source" : {
        "extension" : [ {
          "url" : "https://reportstream.cdc.gov/fhir/StructureDefinition/software-binary-id",
          "valueString" : "CommitID"
        }, {
          "url" : "https://reportstream.cdc.gov/fhir/StructureDefinition/software-install-date",
          "valueInstant" : "2023-07-05T14:02:46Z"
        }, {
          "url" : "https://reportstream.cdc.gov/fhir/StructureDefinition/software-vendor-org",
          "valueReference" : {
            "reference" : "Organization/07640c5d-87cd-488b-9343-a226c5166539"
          }
        } ],
        "software" : "PRIME SimpleReport",
        "version" : "CommitID",
        "endpoint" : "https://simplereport.gov"
      },
      "focus" : [ {
        "reference" : "Provenance/5c5cc8fd-7001-4ac2-9340-541d065eca87"
      }, {
        "reference" : "DiagnosticReport/42daf9c8-9deb-4636-a040-380bde2b44cd"
      } ]
    }
  }, {
    "fullUrl" : "Provenance/5c5cc8fd-7001-4ac2-9340-541d065eca87",
    "resource" : {
      "resourceType" : "Provenance",
      "id" : "5c5cc8fd-7001-4ac2-9340-541d065eca87",
      "recorded" : "2023-05-24T19:33:06.472Z",
      "activity" : {
        "coding" : [ {
          "system" : "http://terminology.hl7.org/CodeSystem/v2-0003",
          "code" : "R01",
          "display" : "ORU/ACK - Unsolicited transmission of an observation message"
        } ]
      },
      "agent" : [ {
        "who" : {
          "reference" : "${json-unit.regex}Organization/[0-9a-f]{8}-[0-9a-f]{4}-[0-9a-f]{4}-[0-9a-f]{4}-[0-9a-f]{12}"
        }
      } ]
    }
  }, {
    "fullUrl" : "DiagnosticReport/42daf9c8-9deb-4636-a040-380bde2b44cd",
    "resource" : {
      "resourceType" : "DiagnosticReport",
      "id" : "42daf9c8-9deb-4636-a040-380bde2b44cd",
      "identifier" : [ {
        "value" : "42daf9c8-9deb-4636-a040-380bde2b44cd"
      } ],
      "basedOn" : [ {
        "reference" : "ServiceRequest/5c5cc8fd-7001-4ac2-9340-541d065eca87"
      } ],
      "status" : "final",
      "code" : {
        "coding" : [ {
          "system" : "http://loinc.org",
          "code" : "94534-5"
        } ]
      },
      "subject" : {
        "reference" : "Patient/1234"
      },
      "effectiveDateTime" : "2023-07-10T08:51:00-04:00",
      "issued" : "2023-07-10T08:51:00-04:00",
      "specimen" : [ {
        "reference" : "Specimen/5c5cc8fd-7001-4ac2-9340-541d065eca87"
      } ],
      "result" : [ {
        "reference" : "Observation/5c5cc8fd-7001-4ac2-9340-541d065eca87"
      } ]
    }
  }, {
    "fullUrl" : "Patient/1234",
    "resource" : {
      "resourceType" : "Patient",
      "id" : "1234",
      "extension" : [ {
        "url" : "http://ibm.com/fhir/cdm/StructureDefinition/local-race-cd",
        "valueCodeableConcept" : {
          "coding" : [ {
            "system" : "http://terminology.hl7.org/CodeSystem/v3-Race",
            "code" : "2106-3"
          } ],
          "text" : "white"
        }
      }, {
        "url" : "https://reportstream.cdc.gov/fhir/StructureDefinition/ethnic-group",
        "valueCodeableConcept" : {
          "coding" : [ {
            "system" : "http://terminology.hl7.org/CodeSystem/v2-0189",
            "code" : "U",
            "display" : "unknown"
          } ],
          "text" : "unknown"
        }
      } ],
      "identifier" : [ {
        "value" : "1234"
      } ],
      "name" : [ {
        "family" : "Doe",
        "given" : [ "Jane" ]
      } ],
      "telecom" : [ {
        "system" : "phone",
        "value" : "(205) 999 2800",
        "use" : "mobile"
      } ],
      "gender" : "female",
      "birthDate" : "1962-01-20",
      "address" : [ {
        "line" : [ "123 Main St" ],
        "city" : "Birmingham",
        "district" : "Jefferson",
        "state" : "al",
        "postalCode" : "35226",
        "country" : "USA"
      } ],
      "managingOrganization" : {
        "reference" : "${json-unit.regex}Organization/[0-9a-f]{8}-[0-9a-f]{4}-[0-9a-f]{4}-[0-9a-f]{4}-[0-9a-f]{12}"
      }
    }
  }, {
    "fullUrl" : "${json-unit.regex}Organization/[0-9a-f]{8}-[0-9a-f]{4}-[0-9a-f]{4}-[0-9a-f]{4}-[0-9a-f]{12}",
    "resource" : {
      "resourceType" : "Organization",
      "id" : "${json-unit.regex}[0-9a-f]{8}-[0-9a-f]{4}-[0-9a-f]{4}-[0-9a-f]{4}-[0-9a-f]{12}",
      "identifier" : [ {
        "use" : "official",
        "type" : {
          "coding" : [ {
            "system" : "http://terminology.hl7.org/CodeSystem/v2-0301",
            "code" : "CLIA"
          } ]
        },
        "value" : "01D1058442"
      } ],
      "name" : "My Urgent Care",
      "telecom" : [ {
        "system" : "phone",
        "value" : "(205) 888 2000",
        "use" : "work"
      } ],
      "address" : [ {
        "line" : [ "400 Main Street" ],
        "city" : "Birmingham",
        "state" : "al",
        "postalCode" : "35228",
        "country" : "USA"
      } ]
    }
  }, {
    "fullUrl" : "Organization/5c5cc8fd-7001-4ac2-9340-541d065eca87",
    "resource" : {
      "resourceType" : "Organization",
      "id" : "5c5cc8fd-7001-4ac2-9340-541d065eca87",
      "identifier" : [ {
        "use" : "official",
        "type" : {
          "coding" : [ {
            "system" : "http://terminology.hl7.org/CodeSystem/v2-0301",
            "code" : "CLIA"
          } ]
        },
        "value" : "01D1058442"
      } ],
      "name" : "My Care that is Urgent",
      "telecom" : [ {
        "system" : "phone",
        "value" : "(205) 555 2000",
        "use" : "work"
      } ],
      "address" : [ {
        "line" : [ "2 Second Street", "Suite 2" ],
        "city" : "Birmingham",
        "state" : "al",
        "postalCode" : "35228",
        "country" : "USA"
      } ]
    }
  }, {
    "fullUrl" : "Practitioner/1013012657",
    "resource" : {
      "resourceType" : "Practitioner",
      "id" : "1013012657",
      "identifier" : [ {
        "system" : "http://hl7.org/fhir/sid/us-npi",
        "value" : "1013012657"
      } ],
      "name" : [ {
        "family" : "Smith MD",
        "given" : [ "John" ]
      } ],
      "telecom" : [ {
        "system" : "phone",
        "value" : "(205) 888 2000",
        "use" : "work"
      } ],
      "address" : [ {
        "line" : [ "400 Main Street" ],
        "city" : "Birmingham",
        "state" : "al",
        "postalCode" : "35228",
        "country" : "USA"
      } ]
    }
  }, {
    "fullUrl" : "Specimen/5c5cc8fd-7001-4ac2-9340-541d065eca87",
    "resource" : {
      "resourceType" : "Specimen",
      "id" : "5c5cc8fd-7001-4ac2-9340-541d065eca87",
      "identifier" : [ {
        "value" : "5c5cc8fd-7001-4ac2-9340-541d065eca87"
      } ],
      "type" : {
        "coding" : [ {
          "system" : "http://snomed.info/sct",
          "code" : "445297001"
        } ],
        "text" : "nasal swab"
      },
      "subject" : {
        "reference" : "Patient/1234"
      },
      "receivedTime" : "2023-07-10T08:51:00-04:00",
      "collection" : {
        "collectedDateTime" : "2023-07-10T08:51:00-04:00"
      }
    }
  }, {
    "fullUrl" : "ServiceRequest/5c5cc8fd-7001-4ac2-9340-541d065eca87",
    "resource" : {
      "resourceType" : "ServiceRequest",
      "id" : "5c5cc8fd-7001-4ac2-9340-541d065eca87",
      "extension" : [ {
        "url" : "https://reportstream.cdc.gov/fhir/StructureDefinition/order-control",
        "valueCodeableConcept" : {
          "coding" : [ {
            "system" : "http://terminology.hl7.org/CodeSystem/v2-0119",
            "code" : "RE"
          } ]
        }
      }, {
        "url" : "https://reportstream.cdc.gov/fhir/StructureDefinition/order-effective-date",
        "valueDateTime" : "2023-07-10T08:51:00-04:00"
      } ],
      "status" : "completed",
      "intent" : "order",
      "code" : {
        "coding" : [ {
          "system" : "http://loinc.org",
          "code" : "94534-5"
        } ]
      },
      "subject" : {
        "reference" : "Patient/1234"
      },
      "requester" : {
        "reference" : "PractitionerRole/5c5cc8fd-7001-4ac2-9340-541d065eca87"
      },
      "performer" : [ {
        "reference" : "${json-unit.regex}Organization/[0-9a-f]{8}-[0-9a-f]{4}-[0-9a-f]{4}-[0-9a-f]{4}-[0-9a-f]{12}"
      } ],
      "supportingInfo" : [ {
        "reference" : "Observation/087864a3-81d3-3d38-a4be-4bbb928f1f99"
      } ]
    }
  }, {
    "fullUrl" : "${json-unit.regex}Device/[0-9a-f]{8}-[0-9a-f]{4}-[0-9a-f]{4}-[0-9a-f]{4}-[0-9a-f]{12}",
    "resource" : {
      "resourceType" : "Device",
      "id" : "${json-unit.regex}[0-9a-f]{8}-[0-9a-f]{4}-[0-9a-f]{4}-[0-9a-f]{4}-[0-9a-f]{12}",
      "manufacturer" : "Abbott",
      "deviceName" : [ {
        "name" : "ID NOW",
        "type" : "model-name"
      } ]
    }
  }, {
    "fullUrl" : "PractitionerRole/5c5cc8fd-7001-4ac2-9340-541d065eca87",
    "resource" : {
      "resourceType" : "PractitionerRole",
      "id" : "5c5cc8fd-7001-4ac2-9340-541d065eca87",
      "practitioner" : {
        "reference" : "Practitioner/1013012657"
      },
      "organization" : {
        "reference" : "Organization/5c5cc8fd-7001-4ac2-9340-541d065eca87"
      }
    }
  }, {
    "fullUrl" : "Organization/07640c5d-87cd-488b-9343-a226c5166539",
    "resource" : {
      "resourceType" : "Organization",
      "id" : "07640c5d-87cd-488b-9343-a226c5166539",
      "name" : "SimpleReport"
    }
  }, {
    "fullUrl" : "Observation/5c5cc8fd-7001-4ac2-9340-541d065eca87",
    "resource" : {
      "resourceType" : "Observation",
      "id" : "5c5cc8fd-7001-4ac2-9340-541d065eca87",
      "status" : "final",
      "code" : {
        "coding" : [ {
          "system" : "http://loinc.org",
          "code" : "94534-5"
        } ],
        "text" : "COVID-19"
      },
      "subject" : {
        "reference" : "Patient/1234"
      },
      "issued" : "2023-07-10T12:51:00.000Z",
      "performer" : [ {
        "reference" : "${json-unit.regex}Organization/[0-9a-f]{8}-[0-9a-f]{4}-[0-9a-f]{4}-[0-9a-f]{4}-[0-9a-f]{12}"
      } ],
      "valueCodeableConcept" : {
        "coding" : [ {
          "system" : "http://snomed.info/sct",
          "code" : "260373001",
          "display" : "Invalid result"
        } ]
      },
      "interpretation" : [ {
        "coding" : [ {
          "system" : "http://terminology.hl7.org/CodeSystem/v2-0078",
          "code" : "A",
          "display" : "Abnormal"
        } ]
      } ],
      "method" : {
        "extension" : [ {
          "url" : "https://reportstream.cdc.gov/fhir/StructureDefinition/testkit-name-id",
          "valueCoding" : {
            "code" : "10811877011269"
          }
        }, {
          "url" : "https://reportstream.cdc.gov/fhir/StructureDefinition/equipment-uid",
          "valueCoding" : {
            "code" : "00811877010616"
          }
        } ],
        "coding" : [ {
          "display" : "ID NOW"
        } ]
      },
      "specimen" : {
        "reference" : "Specimen/5c5cc8fd-7001-4ac2-9340-541d065eca87"
      },
      "device" : {
        "reference" : "${json-unit.regex}Device/[0-9a-f]{8}-[0-9a-f]{4}-[0-9a-f]{4}-[0-9a-f]{4}-[0-9a-f]{12}"
      }
    }
  }, {
    "fullUrl" : "Observation/087864a3-81d3-3d38-a4be-4bbb928f1f99",
    "resource" : {
      "resourceType" : "Observation",
      "id" : "087864a3-81d3-3d38-a4be-4bbb928f1f99",
      "identifier" : [ {
        "use" : "official",
        "type" : {
          "coding" : [ {
            "system" : "http://loinc.org",
            "code" : "81959-9",
            "display" : "Public health laboratory ask at order entry panel"
          } ]
        }
      } ],
      "status" : "final",
      "code" : {
        "coding" : [ {
          "system" : "http://loinc.org",
          "code" : "95419-8",
          "display" : "Has symptoms related to condition of interest"
        } ],
        "text" : "Has symptoms related to condition of interest"
      },
      "subject" : {
        "reference" : "Patient/1234"
      },
      "valueCodeableConcept" : {
        "coding" : [ {
          "system" : "http://terminology.hl7.org/ValueSet/v2-0136",
          "code" : "N",
          "display" : "No"
        } ]
      }
    }
  } ]
}