{
  "resourceType": "Bundle",
  "identifier": {
    "value": "45e9539f-c9a4-4c86-b79d-4ba2c43f9ee0"
  },
  "type": "message",
  "timestamp": "2023-07-14T15:52:34.540Z",
  "entry": [
    {
      "fullUrl": "MessageHeader/5db534ea-5e97-4861-ba18-d74acc46db15",
      "resource": {
        "resourceType": "MessageHeader",
        "id": "5db534ea-5e97-4861-ba18-d74acc46db15",
        "meta": {
          "tag": [
            {
              "system": "http://terminology.hl7.org/CodeSystem/v2-0103",
              "code": "P",
              "display": "Production"
            }
          ]
        },
        "eventCoding": {
          "system": "http://terminology.hl7.org/CodeSystem/v2-0003",
          "code": "R01",
          "display": "ORU/ACK - Unsolicited transmission of an observation message"
        },
        "destination": [
          {
            "name": "PRIME ReportStream",
            "endpoint": "https://prime.cdc.gov/api/reports?option=SkipInvalidItems"
          }
        ],
        "sender": {
          "reference": "Organization/1c3d14b9-e222-4a16-9fb2-d9f173034a6a"
        },
        "source": {
          "extension": [
            {
              "url": "https://reportstream.cdc.gov/fhir/StructureDefinition/software-binary-id",
              "valueString": "FRIDAY"
            },
            {
              "url": "https://reportstream.cdc.gov/fhir/StructureDefinition/software-install-date",
              "valueInstant": "2023-02-08T21:33:06Z"
            },
            {
              "url": "https://reportstream.cdc.gov/fhir/StructureDefinition/software-vendor-org",
              "valueReference": {
                "reference": "Organization/07640c5d-87cd-488b-9343-a226c5166539"
              }
            }
          ],
          "software": "PRIME SimpleReport",
          "version": "FRIDAY",
          "endpoint": "https://simplereport.gov"
        },
        "focus": [
          {
            "reference": "Provenance/5db534ea-5e97-4861-ba18-d74acc46db15"
          },
          {
            "reference": "DiagnosticReport/45e9539f-c9a4-4c86-b79d-4ba2c43f9ee0"
          }
        ]
      }
    },
    {
      "fullUrl": "Provenance/5db534ea-5e97-4861-ba18-d74acc46db15",
      "resource": {
        "resourceType": "Provenance",
        "id": "5db534ea-5e97-4861-ba18-d74acc46db15",
        "recorded": "2023-07-14T15:52:34.540Z",
        "activity": {
          "coding": [
            {
              "system": "http://terminology.hl7.org/CodeSystem/v2-0003",
              "code": "R01",
              "display": "ORU/ACK - Unsolicited transmission of an observation message"
            }
          ]
        },
        "agent": [
          {
            "who": {
              "reference": "Organization/1c3d14b9-e222-4a16-9fb2-d9f173034a6a"
            }
          }
        ]
      }
    },
    {
      "fullUrl": "DiagnosticReport/45e9539f-c9a4-4c86-b79d-4ba2c43f9ee0",
      "resource": {
        "resourceType": "DiagnosticReport",
        "id": "45e9539f-c9a4-4c86-b79d-4ba2c43f9ee0",
        "identifier": [
          {
            "value": "45e9539f-c9a4-4c86-b79d-4ba2c43f9ee0"
          }
        ],
        "basedOn": [
          {
            "reference": "ServiceRequest/cae01b8c-37dc-4c09-a6d4-ae7bcafc9720"
          }
        ],
        "status": "final",
        "code": {
          "coding": [
            {
              "system": "http://loinc.org",
              "code": "95422-2"
            }
          ]
        },
        "subject": {
          "reference": "Patient/55c53ed2-add5-47fb-884e-b4542ee64589"
        },
        "effectiveDateTime": "2023-07-14T15:45:34+00:00",
        "issued": "2023-07-14T15:52:34+00:00",
        "specimen": [
          {
            "reference": "Specimen/725252ea-50ef-46bd-ae79-c70e1d04b949"
          }
        ],
        "result": [
          {
            "reference": "Observation/f7184a68-c54e-4209-8cc6-5bf5b253e4bd"
          },
          {
            "reference": "Observation/4163abc1-0a54-4aff-badb-87bb96a89470"
          },
          {
            "reference": "Observation/6db25889-09cb-4127-9330-cc7e7459c1cd"
          }
        ]
      }
    },
    {
      "fullUrl": "Patient/55c53ed2-add5-47fb-884e-b4542ee64589",
      "resource": {
        "resourceType": "Patient",
        "id": "55c53ed2-add5-47fb-884e-b4542ee64589",
        "extension": [
          {
            "url": "http://ibm.com/fhir/cdm/StructureDefinition/local-race-cd",
            "valueCodeableConcept": {
              "coding": [
                {
                  "system": "http://terminology.hl7.org/CodeSystem/v3-Race",
                  "code": "2054-5"
                }
              ],
              "text": "black"
            }
          },
          {
            "url": "https://reportstream.cdc.gov/fhir/StructureDefinition/ethnic-group",
            "valueCodeableConcept": {
              "coding": [
                {
                  "system": "http://terminology.hl7.org/CodeSystem/v2-0189",
                  "code": "U",
                  "display": "unknown"
                }
              ],
              "text": "unknown"
            }
          },
          {
            "url": "https://hl7.org/fhir/R4/extension-patient-genderidentity.html",
            "valueCoding": {
              "system": "https://hl7.org/fhir/R4/valueset-gender-identity.html",
              "code": "male",
              "display": "male"
            }
          }
        ],
        "identifier": [
          {
            "value": "55c53ed2-add5-47fb-884e-b4542ee64589"
          }
        ],
        "name": [
          {
            "family": "Jordan",
            "given": [
              "Tracy"
            ]
          }
        ],
        "telecom": [
          {
            "system": "phone",
            "value": "(773) 555 1234",
            "use": "home"
          },
          {
            "system": "email",
            "value": "tj@example.com",
            "use": "home"
          }
        ],
        "gender": "male",
        "birthDate": "2022-12-13",
        "address": [
          {
            "line": [
              "1 Main St"
            ],
            "city": "Chicago",
            "state": "IL",
            "postalCode": "60614",
            "country": "USA"
          }
        ],
        "managingOrganization": {
          "reference": "Organization/1c3d14b9-e222-4a16-9fb2-d9f173034a6a"
        }
      }
    },
    {
      "fullUrl": "Organization/1c3d14b9-e222-4a16-9fb2-d9f173034a6a",
      "resource": {
        "resourceType": "Organization",
        "id": "1c3d14b9-e222-4a16-9fb2-d9f173034a6a",
        "identifier": [
          {
            "use": "official",
            "type": {
              "coding": [
                {
                  "system": "http://terminology.hl7.org/CodeSystem/v2-0301",
                  "code": "CLIA"
                }
              ]
            },
            "value": "123D456789"
          }
        ],
        "name": "School",
        "telecom": [
          {
            "system": "phone",
            "value": "(773) 555 1234",
            "use": "work"
          },
          {
            "system": "email",
            "value": "school@example.com",
            "use": "work"
          }
        ],
        "address": [
          {
            "line": [
              "1 Main St"
            ],
            "city": "Chicago",
            "state": "IL",
            "postalCode": "60614",
            "country": "USA"
          }
        ]
      }
    },
    {
      "fullUrl": "Practitioner/ffc07f31-f2af-4728-a247-8cb3aa05ccd0",
      "resource": {
        "resourceType": "Practitioner",
        "id": "ffc07f31-f2af-4728-a247-8cb3aa05ccd0",
        "name": [
          {
            "family": "Quinn",
            "given": [
              "Michaela"
            ]
          }
        ],
        "telecom": [
          {
            "system": "phone",
            "value": "(773) 555 1235",
            "use": "work"
          }
        ],
        "address": [
          {
            "line": [
              "1 Main St"
            ],
            "city": "Chicago",
            "state": "IL",
            "postalCode": "60614",
            "country": "USA"
          }
        ]
      }
    },
    {
      "fullUrl": "Specimen/725252ea-50ef-46bd-ae79-c70e1d04b949",
      "resource": {
        "resourceType": "Specimen",
        "id": "725252ea-50ef-46bd-ae79-c70e1d04b949",
        "identifier": [
          {
            "value": "5db534ea-5e97-4861-ba18-d74acc46db15"
          }
        ],
        "type": {
          "coding": [
            {
              "system": "http://snomed.info/sct",
              "code": "typeCode"
            }
          ],
          "text": "name"
        },
        "subject": {
          "reference": "Patient/55c53ed2-add5-47fb-884e-b4542ee64589"
        },
        "receivedTime": "2023-07-14T15:45:34+00:00",
        "collection": {
          "bodySite": {
            "coding": [
              {
                "system": "http://snomed.info/sct",
                "code": "87100004"
              }
            ],
            "text": "Topography unknown (body structure)"
          },
          "collectedDateTime": "2023-07-14T15:45:34+00:00"
        }
      }
    },
    {
      "fullUrl": "ServiceRequest/cae01b8c-37dc-4c09-a6d4-ae7bcafc9720",
      "resource": {
        "resourceType": "ServiceRequest",
        "id": "cae01b8c-37dc-4c09-a6d4-ae7bcafc9720",
        "extension": [
          {
            "url": "https://reportstream.cdc.gov/fhir/StructureDefinition/order-control",
            "valueCodeableConcept": {
              "coding": [
                {
                  "system": "http://terminology.hl7.org/CodeSystem/v2-0119",
                  "code": "RE"
                }
              ]
            }
          },
          {
            "url": "https://reportstream.cdc.gov/fhir/StructureDefinition/order-effective-date",
            "valueDateTime": "2023-07-14T15:52:34+00:00"
          }
        ],
        "status": "active",
        "intent": "order",
        "code": {
          "coding": [
            {
              "system": "http://loinc.org",
              "code": "95422-2"
            }
          ]
        },
        "subject": {
          "reference": "Patient/55c53ed2-add5-47fb-884e-b4542ee64589"
        },
        "requester": {
          "reference": "PractitionerRole/5db534ea-5e97-4861-ba18-d74acc46db15"
        },
        "performer": [
          {
            "reference": "Organization/1c3d14b9-e222-4a16-9fb2-d9f173034a6a"
          }
        ],
        "supportingInfo": [
          {
            "reference": "Observation/c17b0cd0-fdfd-3381-98e9-730eaa5ba842"
          },
          {
            "reference": "Observation/7cae2c8e-cc60-35f6-8980-dd6bc9e1f539"
          },
          {
            "reference": "Observation/585761a1-2d41-3688-b5c7-9ae8535b4a67"
          }
        ],
        "note": [
          {
            "extension": [
              {
                "url": "https://reportstream.cdc.gov/fhir/StructureDefinition/note-type",
                "valueCodeableConcept": {
                  "coding": [
                    {
                      "extension": [
                        {
                          "url": "https://reportstream.cdc.gov/fhir/StructureDefinition/code-index-name",
                          "valueString": "identifier"
                        }
                      ],
                      "system": "HL70364",
                      "version": "2.5.1",
                      "code": "RE",
                      "display": "Remark"
                    }
                  ]
                }
              }
            ],
            "text": "Adventurer of the cosmos"
          }
        ]
      }
    },
    {
      "fullUrl": "Device/48aabd5f-a591-4e0e-9fa2-301d3d5a6df4",
      "resource": {
        "resourceType": "Device",
        "id": "48aabd5f-a591-4e0e-9fa2-301d3d5a6df4",
        "manufacturer": "manufacturer",
        "deviceName": [
          {
            "name": "model",
            "type": "model-name"
          }
        ]
      }
    },
    {
      "fullUrl": "PractitionerRole/5db534ea-5e97-4861-ba18-d74acc46db15",
      "resource": {
        "resourceType": "PractitionerRole",
        "id": "5db534ea-5e97-4861-ba18-d74acc46db15",
        "practitioner": {
          "reference": "Practitioner/ffc07f31-f2af-4728-a247-8cb3aa05ccd0"
        },
        "organization": {
          "reference": "Organization/1c3d14b9-e222-4a16-9fb2-d9f173034a6a"
        }
      }
    },
    {
      "fullUrl": "Organization/07640c5d-87cd-488b-9343-a226c5166539",
      "resource": {
        "resourceType": "Organization",
        "id": "07640c5d-87cd-488b-9343-a226c5166539",
        "name": "SimpleReport"
      }
    },
    {
      "fullUrl": "Observation/f7184a68-c54e-4209-8cc6-5bf5b253e4bd",
      "resource": {
        "resourceType": "Observation",
        "id": "f7184a68-c54e-4209-8cc6-5bf5b253e4bd",
        "status": "final",
        "code": {
          "coding": [
            {
              "system": "http://loinc.org",
              "code": "444-123"
            }
          ],
          "text": "FLU A"
        },
        "subject": {
          "reference": "Patient/55c53ed2-add5-47fb-884e-b4542ee64589"
        },
        "issued": "2023-07-14T15:52:34.540Z",
        "performer": [
          {
            "reference": "Organization/1c3d14b9-e222-4a16-9fb2-d9f173034a6a"
          }
        ],
        "valueCodeableConcept": {
          "coding": [
            {
              "system": "http://snomed.info/sct",
              "code": "260415000",
              "display": "Not detected"
            }
          ]
        },
        "interpretation": [
          {
            "coding": [
              {
                "system": "http://terminology.hl7.org/CodeSystem/v2-0078",
                "code": "N",
                "display": "Normal"
              }
            ]
          }
        ],
        "method": {
          "extension": [
            {
              "url": "https://reportstream.cdc.gov/fhir/StructureDefinition/testkit-name-id",
              "valueCoding": {
                "code": "testkitNameId2"
              }
            }
          ],
          "coding": [
            {
              "display": "model"
            }
          ]
        },
        "specimen": {
          "reference": "Specimen/725252ea-50ef-46bd-ae79-c70e1d04b949"
        },
        "device": {
          "reference": "Device/48aabd5f-a591-4e0e-9fa2-301d3d5a6df4"
        }
      }
    },
    {
      "fullUrl": "Observation/4163abc1-0a54-4aff-badb-87bb96a89470",
      "resource": {
        "resourceType": "Observation",
        "id": "4163abc1-0a54-4aff-badb-87bb96a89470",
        "status": "final",
        "code": {
          "coding": [
            {
              "system": "http://loinc.org",
              "code": "333-123"
            }
          ],
          "text": "COVID-19"
        },
        "subject": {
          "reference": "Patient/55c53ed2-add5-47fb-884e-b4542ee64589"
        },
        "issued": "2023-07-14T15:52:34.540Z",
        "performer": [
          {
            "reference": "Organization/1c3d14b9-e222-4a16-9fb2-d9f173034a6a"
          }
        ],
        "valueCodeableConcept": {
          "coding": [
            {
              "system": "http://snomed.info/sct",
              "code": "260373001",
              "display": "Detected"
            }
          ]
        },
        "interpretation": [
          {
            "coding": [
              {
                "system": "http://terminology.hl7.org/CodeSystem/v2-0078",
                "code": "A",
                "display": "Abnormal"
              }
            ]
          }
        ],
        "method": {
          "extension": [
            {
              "url": "https://reportstream.cdc.gov/fhir/StructureDefinition/testkit-name-id",
              "valueCoding": {
                "code": "testkitNameId1"
              }
            }
          ],
          "coding": [
            {
              "display": "model"
            }
          ]
        },
        "specimen": {
          "reference": "Specimen/725252ea-50ef-46bd-ae79-c70e1d04b949"
        },
        "device": {
          "reference": "Device/48aabd5f-a591-4e0e-9fa2-301d3d5a6df4"
        }
      }
    },
    {
      "fullUrl": "Observation/6db25889-09cb-4127-9330-cc7e7459c1cd",
      "resource": {
        "resourceType": "Observation",
        "id": "6db25889-09cb-4127-9330-cc7e7459c1cd",
        "status": "final",
        "code": {
          "coding": [
            {
              "system": "http://loinc.org",
              "code": "444-456"
            }
          ],
          "text": "FLU B"
        },
        "subject": {
          "reference": "Patient/55c53ed2-add5-47fb-884e-b4542ee64589"
        },
        "issued": "2023-07-14T15:52:34.540Z",
        "performer": [
          {
            "reference": "Organization/1c3d14b9-e222-4a16-9fb2-d9f173034a6a"
          }
        ],
        "valueCodeableConcept": {
          "coding": [
            {
              "system": "http://snomed.info/sct",
              "code": "455371000124106",
              "display": "Invalid result"
            }
          ]
        },
        "interpretation": [
          {
            "coding": [
              {
                "system": "http://terminology.hl7.org/CodeSystem/v2-0078",
                "code": "N",
                "display": "Normal"
              }
            ]
          }
        ],
        "method": {
          "extension": [
            {
              "url": "https://reportstream.cdc.gov/fhir/StructureDefinition/testkit-name-id",
              "valueCoding": {
                "code": "testkitNameId3"
              }
            }
          ],
          "coding": [
            {
              "display": "model"
            }
          ]
        },
        "specimen": {
          "reference": "Specimen/725252ea-50ef-46bd-ae79-c70e1d04b949"
        },
        "device": {
          "reference": "Device/48aabd5f-a591-4e0e-9fa2-301d3d5a6df4"
        }
      }
    },
    {
      "fullUrl": "Observation/c17b0cd0-fdfd-3381-98e9-730eaa5ba842",
      "resource": {
        "resourceType": "Observation",
        "id": "c17b0cd0-fdfd-3381-98e9-730eaa5ba842",
        "identifier": [
          {
            "use": "official",
            "type": {
              "coding": [
                {
                  "system": "http://loinc.org",
                  "code": "81959-9",
                  "display": "Public health laboratory ask at order entry panel"
                }
              ]
            }
          }
        ],
        "status": "final",
        "code": {
          "coding": [
            {
              "system": "http://loinc.org",
              "code": "95419-8",
              "display": "Has symptoms related to condition of interest"
            }
          ],
          "text": "Has symptoms related to condition of interest"
        },
        "subject": {
          "reference": "Patient/55c53ed2-add5-47fb-884e-b4542ee64589"
        },
        "valueCodeableConcept": {
          "coding": [
            {
              "system": "http://terminology.hl7.org/CodeSystem/v3-NullFlavor",
              "code": "UNK",
              "display": "unknown"
            }
          ]
        }
      }
    },
    {
      "fullUrl": "Observation/7cae2c8e-cc60-35f6-8980-dd6bc9e1f539",
      "resource": {
        "resourceType": "Observation",
        "id": "7cae2c8e-cc60-35f6-8980-dd6bc9e1f539",
        "identifier": [
          {
            "use": "official",
            "type": {
              "coding": [
                {
                  "system": "http://loinc.org",
                  "code": "81959-9",
                  "display": "Public health laboratory ask at order entry panel"
                }
              ]
            }
          }
        ],
        "status": "final",
        "code": {
          "coding": [
            {
              "system": "http://loinc.org",
              "code": "95418-0",
              "display": "Employed in a healthcare setting"
            }
          ],
          "text": "Employed in a healthcare setting"
        },
        "subject": {
          "reference": "Patient/55c53ed2-add5-47fb-884e-b4542ee64589"
        },
        "valueCodeableConcept": {
          "coding": [
            {
              "system": "http://terminology.hl7.org/ValueSet/v2-0136",
              "code": "N",
              "display": "No"
            }
          ]
        }
      }
    },
    {
      "fullUrl": "Observation/585761a1-2d41-3688-b5c7-9ae8535b4a67",
      "resource": {
        "resourceType": "Observation",
        "id": "585761a1-2d41-3688-b5c7-9ae8535b4a67",
        "identifier": [
          {
            "use": "official",
            "type": {
              "coding": [
                {
                  "system": "http://loinc.org",
                  "code": "81959-9",
                  "display": "Public health laboratory ask at order entry panel"
                }
              ]
            }
          }
        ],
        "status": "final",
        "code": {
          "coding": [
            {
              "system": "http://loinc.org",
              "code": "95421-4",
              "display": "Resides in a congregate care setting"
            }
          ],
          "text": "Resides in a congregate care setting"
        },
        "subject": {
          "reference": "Patient/55c53ed2-add5-47fb-884e-b4542ee64589"
        },
        "valueCodeableConcept": {
          "coding": [
            {
              "system": "http://terminology.hl7.org/ValueSet/v2-0136",
              "code": "N",
              "display": "No"
            }
          ]
        }
      }
    }
  ]
}