{
  "resourceType": "Bundle",
  "identifier": {
    "value": "5c5cc8fd-7001-4ac2-9340-541d065eca87"
  },
  "type": "message",
  "timestamp": "2023-05-24T19:33:06.472Z",
  "entry": [
    {
      "fullUrl": "MessageHeader/5c5cc8fd-7001-4ac2-9340-541d065eca87",
      "resource": {
        "resourceType": "MessageHeader",
        "id": "5c5cc8fd-7001-4ac2-9340-541d065eca87",
        "meta": {
          "tag": [
            {
              "system": "http://terminology.hl7.org/CodeSystem/v2-0103",
              "code": "P",
              "display": "Production"
            }
          ]
        },
        "eventCoding": {
          "system": "http://terminology.hl7.org/CodeSystem/v2-0003",
          "code": "R01",
          "display": "ORU/ACK - Unsolicited transmission of an observation message"
        },
        "destination": [
          {
            "name": "PRIME ReportStream",
            "endpoint": "https://prime.cdc.gov/api/reports?option=SkipInvalidItems"
          }
        ],
        "source": {
          "extension": [
            {
              "url": "https://reportstream.cdc.gov/fhir/StructureDefinition/software-binary-id",
              "valueString": "CommitID"
            },
            {
              "url": "https://reportstream.cdc.gov/fhir/StructureDefinition/software-install-date",
              "valueInstant": "2023-07-05T14:02:46Z"
            },
            {
              "url": "https://reportstream.cdc.gov/fhir/StructureDefinition/software-vendor-org",
              "valueReference": {
                "reference": "Organization/07640c5d-87cd-488b-9343-a226c5166539"
              }
            }
          ],
          "software": "PRIME SimpleReport",
          "version": "CommitID",
          "endpoint": "https://simplereport.gov"
        },
        "focus": [
          {
            "reference": "DiagnosticReport/5c5cc8fd-7001-4ac2-9340-541d065eca87"
          }
        ]
      }
    },
    {
      "fullUrl": "Patient/a33f2841-eec2-4bfa-bc51-43e5ca76194a",
      "resource": {
        "resourceType": "Patient",
        "id": "a33f2841-eec2-4bfa-bc51-43e5ca76194a",
        "name": [
          {
            "family": "Stark",
            "given": [
              "Tony"
            ]
          }
        ],
        "gender": "male"
      }
    },
    {
      "fullUrl": "Organization/07640c5d-87cd-488b-9343-a226c5166539",
      "resource": {
        "resourceType": "Organization",
        "id": "07640c5d-87cd-488b-9343-a226c5166539",
        "name": "SimpleReport"
      }
    },
    {
      "fullUrl": "Observation/5c5cc8fd-7001-4ac2-9340-541d065eca87",
      "resource": {
        "resourceType": "Observation",
        "id": "5c5cc8fd-7001-4ac2-9340-541d065eca87",
        "status": "final",
        "category": [
          {
            "coding": [
              {
                "system": "https://terminology.hl7.org/5.2.0/CodeSystem-observation-category.html",
                "code": "laboratory"
              }
            ]
          }
        ],
        "code": {
          "coding": [
            {
              "system": "http://loinc.org",
              "code": "97097-0"
            }
          ]
        },
        "subject": {
          "reference": "Patient/a33f2841-eec2-4bfa-bc51-43e5ca76194a"
        },
        "valueCodeableConcept": {
          "coding": [
            {
              "system": "http://snomed.info/sct",
              "code": "260373001"
            }
          ]
        }
      }
    },
    {
      "fullUrl": "DiagnosticReport/5c5cc8fd-7001-4ac2-9340-541d065eca87",
      "resource": {
        "resourceType": "DiagnosticReport",
        "id": "5c5cc8fd-7001-4ac2-9340-541d065eca87",
        "category": [
          {
            "coding": [
              {
                "system": "https://terminology.hl7.org/5.2.0/CodeSystem-v2-0074.html",
                "code": "LAB"
              }
            ]
          }
        ],
        "code": {
          "coding": [
            {
              "system": "http://loinc.org",
              "code": "97097-0"
            }
          ]
        },
        "subject": {
          "reference": "Patient/a33f2841-eec2-4bfa-bc51-43e5ca76194a"
        },
        "effectiveDateTime": "2023-11-27T16:14:00-06:00",
        "result": [
          {
            "reference": "Observation/5c5cc8fd-7001-4ac2-9340-541d065eca87"
          }
        ]
      }
    }
  ]
}
{
  "resourceType": "Bundle",
  "identifier": {
    "value": "5c5cc8fd-7001-4ac2-9340-541d065eca87"
  },
  "type": "message",
  "timestamp": "2023-05-24T19:33:06.472Z",
  "entry": [
    {
      "fullUrl": "MessageHeader/5c5cc8fd-7001-4ac2-9340-541d065eca87",
      "resource": {
        "resourceType": "MessageHeader",
        "id": "5c5cc8fd-7001-4ac2-9340-541d065eca87",
        "meta": {
          "tag": [
            {
              "system": "http://terminology.hl7.org/CodeSystem/v2-0103",
              "code": "P",
              "display": "Production"
            }
          ]
        },
        "eventCoding": {
          "system": "http://terminology.hl7.org/CodeSystem/v2-0003",
          "code": "R01",
          "display": "ORU/ACK - Unsolicited transmission of an observation message"
        },
        "destination": [
          {
            "name": "PRIME ReportStream",
            "endpoint": "https://prime.cdc.gov/api/reports?option=SkipInvalidItems"
          }
        ],
        "source": {
          "extension": [
            {
              "url": "https://reportstream.cdc.gov/fhir/StructureDefinition/software-binary-id",
              "valueString": "CommitID"
            },
            {
              "url": "https://reportstream.cdc.gov/fhir/StructureDefinition/software-install-date",
              "valueInstant": "2023-07-05T14:02:46Z"
            },
            {
              "url": "https://reportstream.cdc.gov/fhir/StructureDefinition/software-vendor-org",
              "valueReference": {
                "reference": "Organization/07640c5d-87cd-488b-9343-a226c5166539"
              }
            }
          ],
          "software": "PRIME SimpleReport",
          "version": "CommitID",
          "endpoint": "https://simplereport.gov"
        },
        "focus": [
          {
            "reference": "DiagnosticReport/5c5cc8fd-7001-4ac2-9340-541d065eca87"
          }
        ]
      }
    },
    {
      "fullUrl": "Patient/66a02452-62c6-11ee-8c99-0242ac120002",
      "resource": {
        "resourceType": "Patient",
        "id": "66a02452-62c6-11ee-8c99-0242ac120002",
        "name": [
          {
            "family": "Banner",
            "given": [
              "Bruce"
            ]
          }
        ],
        "gender": "male"
      }
    },
    {
      "fullUrl": "Organization/07640c5d-87cd-488b-9343-a226c5166539",
      "resource": {
        "resourceType": "Organization",
        "id": "07640c5d-87cd-488b-9343-a226c5166539",
        "name": "SimpleReport"
      }
    },
    {
      "fullUrl": "Observation/5c5cc8fd-7001-4ac2-9340-541d065eca87",
      "resource": {
        "resourceType": "Observation",
        "id": "5c5cc8fd-7001-4ac2-9340-541d065eca87",
        "status": "final",
        "category": [
          {
            "coding": [
              {
                "system": "https://terminology.hl7.org/5.2.0/CodeSystem-observation-category.html",
                "code": "laboratory"
              }
            ]
          }
        ],
        "code": {
          "coding": [
            {
              "system": "http://loinc.org",
              "code": "94558-4"
            }
          ]
        },
        "subject": {
          "reference": "Patient/66a02452-62c6-11ee-8c99-0242ac120002"
        },
        "valueCodeableConcept": {
          "coding": [
            {
              "system": "http://snomed.info/sct",
              "code": "260373001"
            }
          ]
        }
      }
    },
    {
      "fullUrl": "DiagnosticReport/5c5cc8fd-7001-4ac2-9340-541d065eca87",
      "resource": {
        "resourceType": "DiagnosticReport",
        "id": "5c5cc8fd-7001-4ac2-9340-541d065eca87",
        "category": [
          {
            "coding": [
              {
                "system": "https://terminology.hl7.org/5.2.0/CodeSystem-v2-0074.html",
                "code": "LAB"
              }
            ]
          }
        ],
        "code": {
          "coding": [
            {
              "system": "http://loinc.org",
              "code": "94558-4"
            }
          ]
        },
        "subject": {
          "reference": "Patient/66a02452-62c6-11ee-8c99-0242ac120002"
        },
        "effectiveDateTime": "2023-05-25T04:30:00-05:00",
        "result": [
          {
            "reference": "Observation/5c5cc8fd-7001-4ac2-9340-541d065eca87"
          }
        ]
      }
    }
  ]
}
{
  "resourceType": "Bundle",
  "identifier": {
    "value": "5c5cc8fd-7001-4ac2-9340-541d065eca87"
  },
  "type": "message",
  "timestamp": "2023-05-24T19:33:06.472Z",
  "entry": [
    {
      "fullUrl": "MessageHeader/5c5cc8fd-7001-4ac2-9340-541d065eca87",
      "resource": {
        "resourceType": "MessageHeader",
        "id": "5c5cc8fd-7001-4ac2-9340-541d065eca87",
        "meta": {
          "tag": [
            {
              "system": "http://terminology.hl7.org/CodeSystem/v2-0103",
              "code": "P",
              "display": "Production"
            }
          ]
        },
        "eventCoding": {
          "system": "http://terminology.hl7.org/CodeSystem/v2-0003",
          "code": "R01",
          "display": "ORU/ACK - Unsolicited transmission of an observation message"
        },
        "destination": [
          {
            "name": "PRIME ReportStream",
            "endpoint": "https://prime.cdc.gov/api/reports?option=SkipInvalidItems"
          }
        ],
        "source": {
          "extension": [
            {
              "url": "https://reportstream.cdc.gov/fhir/StructureDefinition/software-binary-id",
              "valueString": "CommitID"
            },
            {
              "url": "https://reportstream.cdc.gov/fhir/StructureDefinition/software-install-date",
              "valueInstant": "2023-07-05T14:02:46Z"
            },
            {
              "url": "https://reportstream.cdc.gov/fhir/StructureDefinition/software-vendor-org",
              "valueReference": {
                "reference": "Organization/07640c5d-87cd-488b-9343-a226c5166539"
              }
            }
          ],
          "software": "PRIME SimpleReport",
          "version": "CommitID",
          "endpoint": "https://simplereport.gov"
        },
        "focus": [
          {
            "reference": "DiagnosticReport/5c5cc8fd-7001-4ac2-9340-541d065eca87"
          }
        ]
      }
    },
    {
      "fullUrl": "Patient/0df89b0c-22a9-41e4-b4f5-01c7c98752e5",
      "resource": {
        "resourceType": "Patient",
        "id": "0df89b0c-22a9-41e4-b4f5-01c7c98752e5",
        "name": [
          {
            "family": "Danvers",
            "given": [
              "Carol"
            ]
          }
        ],
        "gender": "female"
      }
    },
    {
      "fullUrl": "Organization/07640c5d-87cd-488b-9343-a226c5166539",
      "resource": {
        "resourceType": "Organization",
        "id": "07640c5d-87cd-488b-9343-a226c5166539",
        "name": "SimpleReport"
      }
    },
    {
      "fullUrl": "Observation/5c5cc8fd-7001-4ac2-9340-541d065eca87",
      "resource": {
        "resourceType": "Observation",
        "id": "5c5cc8fd-7001-4ac2-9340-541d065eca87",
        "status": "corrected",
        "category": [
          {
            "coding": [
              {
                "system": "https://terminology.hl7.org/5.2.0/CodeSystem-observation-category.html",
                "code": "laboratory"
              }
            ]
          }
        ],
        "code": {
          "coding": [
            {
              "system": "http://loinc.org",
              "code": "94534-5"
            }
          ]
        },
        "subject": {
          "reference": "Patient/0df89b0c-22a9-41e4-b4f5-01c7c98752e5"
        },
        "valueCodeableConcept": {
          "coding": [
            {
              "system": "http://snomed.info/sct",
              "code": "260415000"
            }
          ]
        }
      }
    },
    {
      "fullUrl": "DiagnosticReport/5c5cc8fd-7001-4ac2-9340-541d065eca87",
      "resource": {
        "resourceType": "DiagnosticReport",
        "id": "5c5cc8fd-7001-4ac2-9340-541d065eca87",
        "category": [
          {
            "coding": [
              {
                "system": "https://terminology.hl7.org/5.2.0/CodeSystem-v2-0074.html",
                "code": "LAB"
              }
            ]
          }
        ],
        "code": {
          "coding": [
            {
              "system": "http://loinc.org",
              "code": "94534-5"
            }
          ]
        },
        "subject": {
          "reference": "Patient/0df89b0c-22a9-41e4-b4f5-01c7c98752e5"
        },
        "effectiveDateTime": "2023-11-11T19:51:00-05:00",
        "result": [
          {
            "reference": "Observation/5c5cc8fd-7001-4ac2-9340-541d065eca87"
          }
        ]
      }
    }
  ]
}
{
  "resourceType": "Bundle",
  "identifier": {
    "value": "5c5cc8fd-7001-4ac2-9340-541d065eca87"
  },
  "type": "message",
  "timestamp": "2023-05-24T19:33:06.472Z",
  "entry": [
    {
      "fullUrl": "MessageHeader/5c5cc8fd-7001-4ac2-9340-541d065eca87",
      "resource": {
        "resourceType": "MessageHeader",
        "id": "5c5cc8fd-7001-4ac2-9340-541d065eca87",
        "meta": {
          "tag": [
            {
              "system": "http://terminology.hl7.org/CodeSystem/v2-0103",
              "code": "P",
              "display": "Production"
            }
          ]
        },
        "eventCoding": {
          "system": "http://terminology.hl7.org/CodeSystem/v2-0003",
          "code": "R01",
          "display": "ORU/ACK - Unsolicited transmission of an observation message"
        },
        "destination": [
          {
            "name": "PRIME ReportStream",
            "endpoint": "https://prime.cdc.gov/api/reports?option=SkipInvalidItems"
          }
        ],
        "source": {
          "extension": [
            {
              "url": "https://reportstream.cdc.gov/fhir/StructureDefinition/software-binary-id",
              "valueString": "CommitID"
            },
            {
              "url": "https://reportstream.cdc.gov/fhir/StructureDefinition/software-install-date",
              "valueInstant": "2023-07-05T14:02:46Z"
            },
            {
              "url": "https://reportstream.cdc.gov/fhir/StructureDefinition/software-vendor-org",
              "valueReference": {
                "reference": "Organization/07640c5d-87cd-488b-9343-a226c5166539"
              }
            }
          ],
          "software": "PRIME SimpleReport",
          "version": "CommitID",
          "endpoint": "https://simplereport.gov"
        },
        "focus": [
          {
            "reference": "DiagnosticReport/5c5cc8fd-7001-4ac2-9340-541d065eca87"
          }
        ]
      }
    },
    {
      "fullUrl": "Patient/66a029a2-62c6-11ee-8c99-0242ac120002",
      "resource": {
        "resourceType": "Patient",
        "id": "66a029a2-62c6-11ee-8c99-0242ac120002",
        "name": [
          {
            "family": "Rogers",
            "given": [
              "Steve"
            ]
          }
        ],
        "gender": "male"
      }
    },
    {
      "fullUrl": "Organization/07640c5d-87cd-488b-9343-a226c5166539",
      "resource": {
        "resourceType": "Organization",
        "id": "07640c5d-87cd-488b-9343-a226c5166539",
        "name": "SimpleReport"
      }
    },
    {
      "fullUrl": "Observation/5c5cc8fd-7001-4ac2-9340-541d065eca87",
      "resource": {
        "resourceType": "Observation",
        "id": "5c5cc8fd-7001-4ac2-9340-541d065eca87",
        "status": "final",
        "category": [
          {
            "coding": [
              {
                "system": "https://terminology.hl7.org/5.2.0/CodeSystem-observation-category.html",
                "code": "laboratory"
              }
            ]
          }
        ],
        "code": {
          "coding": [
            {
              "system": "http://loinc.org",
              "code": "94534-5"
            }
          ]
        },
        "subject": {
          "reference": "Patient/66a029a2-62c6-11ee-8c99-0242ac120002"
        },
        "valueCodeableConcept": {
          "coding": [
            {
              "system": "http://snomed.info/sct",
              "code": "260415000"
            }
          ]
        }
      }
    },
    {
      "fullUrl": "DiagnosticReport/5c5cc8fd-7001-4ac2-9340-541d065eca87",
      "resource": {
        "resourceType": "DiagnosticReport",
        "id": "5c5cc8fd-7001-4ac2-9340-541d065eca87",
        "category": [
          {
            "coding": [
              {
                "system": "https://terminology.hl7.org/5.2.0/CodeSystem-v2-0074.html",
                "code": "LAB"
              }
            ]
          }
        ],
        "code": {
          "coding": [
            {
              "system": "http://loinc.org",
              "code": "94534-5"
            }
          ]
        },
        "subject": {
          "reference": "Patient/66a029a2-62c6-11ee-8c99-0242ac120002"
        },
        "effectiveDateTime": "2023-10-05T08:55:00-06:00",
        "result": [
          {
            "reference": "Observation/5c5cc8fd-7001-4ac2-9340-541d065eca87"
          }
        ]
      }
    }
  ]
}
{
  "resourceType": "Bundle",
  "identifier": {
    "value": "5c5cc8fd-7001-4ac2-9340-541d065eca87"
  },
  "type": "message",
  "timestamp": "2023-05-24T19:33:06.472Z",
  "entry": [
    {
      "fullUrl": "MessageHeader/5c5cc8fd-7001-4ac2-9340-541d065eca87",
      "resource": {
        "resourceType": "MessageHeader",
        "id": "5c5cc8fd-7001-4ac2-9340-541d065eca87",
        "meta": {
          "tag": [
            {
              "system": "http://terminology.hl7.org/CodeSystem/v2-0103",
              "code": "P",
              "display": "Production"
            }
          ]
        },
        "eventCoding": {
          "system": "http://terminology.hl7.org/CodeSystem/v2-0003",
          "code": "R01",
          "display": "ORU/ACK - Unsolicited transmission of an observation message"
        },
        "destination": [
          {
            "name": "PRIME ReportStream",
            "endpoint": "https://prime.cdc.gov/api/reports?option=SkipInvalidItems"
          }
        ],
        "source": {
          "extension": [
            {
              "url": "https://reportstream.cdc.gov/fhir/StructureDefinition/software-binary-id",
              "valueString": "CommitID"
            },
            {
              "url": "https://reportstream.cdc.gov/fhir/StructureDefinition/software-install-date",
              "valueInstant": "2023-07-05T14:02:46Z"
            },
            {
              "url": "https://reportstream.cdc.gov/fhir/StructureDefinition/software-vendor-org",
              "valueReference": {
                "reference": "Organization/07640c5d-87cd-488b-9343-a226c5166539"
              }
            }
          ],
          "software": "PRIME SimpleReport",
          "version": "CommitID",
          "endpoint": "https://simplereport.gov"
        },
        "focus": [
          {
            "reference": "DiagnosticReport/5c5cc8fd-7001-4ac2-9340-541d065eca87"
          }
        ]
      }
    },
    {
      "fullUrl": "Patient/66a03406-62c6-11ee-8c99-0242ac120002",
      "resource": {
        "resourceType": "Patient",
        "id": "66a03406-62c6-11ee-8c99-0242ac120002",
        "name": [
          {
            "family": "Maximoff",
            "given": [
              "Wanda"
            ]
          }
        ],
        "gender": "female"
      }
    },
    {
      "fullUrl": "Organization/07640c5d-87cd-488b-9343-a226c5166539",
      "resource": {
        "resourceType": "Organization",
        "id": "07640c5d-87cd-488b-9343-a226c5166539",
        "name": "SimpleReport"
      }
    },
    {
      "fullUrl": "Observation/5c5cc8fd-7001-4ac2-9340-541d065eca87",
      "resource": {
        "resourceType": "Observation",
        "id": "5c5cc8fd-7001-4ac2-9340-541d065eca87",
        "status": "final",
        "category": [
          {
            "coding": [
              {
                "system": "https://terminology.hl7.org/5.2.0/CodeSystem-observation-category.html",
                "code": "laboratory"
              }
            ]
          }
        ],
        "code": {
          "coding": [
            {
              "system": "http://loinc.org",
              "code": "94534-5"
            }
          ]
        },
        "subject": {
          "reference": "Patient/66a03406-62c6-11ee-8c99-0242ac120002"
        },
        "valueCodeableConcept": {
          "coding": [
            {
              "system": "http://snomed.info/sct",
              "code": "260415000"
            }
          ]
        }
      }
    },
    {
      "fullUrl": "DiagnosticReport/5c5cc8fd-7001-4ac2-9340-541d065eca87",
      "resource": {
        "resourceType": "DiagnosticReport",
        "id": "5c5cc8fd-7001-4ac2-9340-541d065eca87",
        "category": [
          {
            "coding": [
              {
                "system": "https://terminology.hl7.org/5.2.0/CodeSystem-v2-0074.html",
                "code": "LAB"
              }
            ]
          }
        ],
        "code": {
          "coding": [
            {
              "system": "http://loinc.org",
              "code": "94534-5"
            }
          ]
        },
        "subject": {
          "reference": "Patient/66a03406-62c6-11ee-8c99-0242ac120002"
        },
        "effectiveDateTime": "2023-12-15T05:43:00-06:00",
        "result": [
          {
            "reference": "Observation/5c5cc8fd-7001-4ac2-9340-541d065eca87"
          }
        ]
      }
    }
  ]
}
{
  "resourceType": "Bundle",
  "identifier": {
    "value": "5c5cc8fd-7001-4ac2-9340-541d065eca87"
  },
  "type": "message",
  "timestamp": "2023-05-24T19:33:06.472Z",
  "entry": [
    {
      "fullUrl": "MessageHeader/5c5cc8fd-7001-4ac2-9340-541d065eca87",
      "resource": {
        "resourceType": "MessageHeader",
        "id": "5c5cc8fd-7001-4ac2-9340-541d065eca87",
        "meta": {
          "tag": [
            {
              "system": "http://terminology.hl7.org/CodeSystem/v2-0103",
              "code": "P",
              "display": "Production"
            }
          ]
        },
        "eventCoding": {
          "system": "http://terminology.hl7.org/CodeSystem/v2-0003",
          "code": "R01",
          "display": "ORU/ACK - Unsolicited transmission of an observation message"
        },
        "destination": [
          {
            "name": "PRIME ReportStream",
            "endpoint": "https://prime.cdc.gov/api/reports?option=SkipInvalidItems"
          }
        ],
        "source": {
          "extension": [
            {
              "url": "https://reportstream.cdc.gov/fhir/StructureDefinition/software-binary-id",
              "valueString": "CommitID"
            },
            {
              "url": "https://reportstream.cdc.gov/fhir/StructureDefinition/software-install-date",
              "valueInstant": "2023-07-05T14:02:46Z"
            },
            {
              "url": "https://reportstream.cdc.gov/fhir/StructureDefinition/software-vendor-org",
              "valueReference": {
                "reference": "Organization/07640c5d-87cd-488b-9343-a226c5166539"
              }
            }
          ],
          "software": "PRIME SimpleReport",
          "version": "CommitID",
          "endpoint": "https://simplereport.gov"
        },
        "focus": [
          {
            "reference": "DiagnosticReport/5c5cc8fd-7001-4ac2-9340-541d065eca87"
          }
        ]
      }
    },
    {
      "fullUrl": "Patient/66a02b96-62c6-11ee-8c99-0242ac120002",
      "resource": {
        "resourceType": "Patient",
        "id": "66a02b96-62c6-11ee-8c99-0242ac120002",
        "name": [
          {
            "family": "Romanov",
            "given": [
              "Natasha"
            ]
          }
        ],
        "gender": "female"
      }
    },
    {
      "fullUrl": "Organization/07640c5d-87cd-488b-9343-a226c5166539",
      "resource": {
        "resourceType": "Organization",
        "id": "07640c5d-87cd-488b-9343-a226c5166539",
        "name": "SimpleReport"
      }
    },
    {
      "fullUrl": "Observation/5c5cc8fd-7001-4ac2-9340-541d065eca87",
      "resource": {
        "resourceType": "Observation",
        "id": "5c5cc8fd-7001-4ac2-9340-541d065eca87",
        "status": "final",
        "category": [
          {
            "coding": [
              {
                "system": "https://terminology.hl7.org/5.2.0/CodeSystem-observation-category.html",
                "code": "laboratory"
              }
            ]
          }
        ],
        "code": {
          "coding": [
            {
              "system": "http://loinc.org",
              "code": "94508-9"
            }
          ]
        },
        "subject": {
          "reference": "Patient/66a02b96-62c6-11ee-8c99-0242ac120002"
        },
        "valueCodeableConcept": {
          "coding": [
            {
              "system": "http://snomed.info/sct",
              "code": "419984006"
            }
          ]
        }
      }
    },
    {
      "fullUrl": "DiagnosticReport/5c5cc8fd-7001-4ac2-9340-541d065eca87",
      "resource": {
        "resourceType": "DiagnosticReport",
        "id": "5c5cc8fd-7001-4ac2-9340-541d065eca87",
        "category": [
          {
            "coding": [
              {
                "system": "https://terminology.hl7.org/5.2.0/CodeSystem-v2-0074.html",
                "code": "LAB"
              }
            ]
          }
        ],
        "code": {
          "coding": [
            {
              "system": "http://loinc.org",
              "code": "94508-9"
            }
          ]
        },
        "subject": {
          "reference": "Patient/66a02b96-62c6-11ee-8c99-0242ac120002"
        },
        "effectiveDateTime": "2023-04-29T02:42:00-05:00",
        "result": [
          {
            "reference": "Observation/5c5cc8fd-7001-4ac2-9340-541d065eca87"
          }
        ]
      }
    }
  ]
}
{
  "resourceType": "Bundle",
  "identifier": {
    "value": "5c5cc8fd-7001-4ac2-9340-541d065eca87"
  },
  "type": "message",
  "timestamp": "2023-05-24T19:33:06.472Z",
  "entry": [
    {
      "fullUrl": "MessageHeader/5c5cc8fd-7001-4ac2-9340-541d065eca87",
      "resource": {
        "resourceType": "MessageHeader",
        "id": "5c5cc8fd-7001-4ac2-9340-541d065eca87",
        "meta": {
          "tag": [
            {
              "system": "http://terminology.hl7.org/CodeSystem/v2-0103",
              "code": "P",
              "display": "Production"
            }
          ]
        },
        "eventCoding": {
          "system": "http://terminology.hl7.org/CodeSystem/v2-0003",
          "code": "R01",
          "display": "ORU/ACK - Unsolicited transmission of an observation message"
        },
        "destination": [
          {
            "name": "PRIME ReportStream",
            "endpoint": "https://prime.cdc.gov/api/reports?option=SkipInvalidItems"
          }
        ],
        "source": {
          "extension": [
            {
              "url": "https://reportstream.cdc.gov/fhir/StructureDefinition/software-binary-id",
              "valueString": "CommitID"
            },
            {
              "url": "https://reportstream.cdc.gov/fhir/StructureDefinition/software-install-date",
              "valueInstant": "2023-07-05T14:02:46Z"
            },
            {
              "url": "https://reportstream.cdc.gov/fhir/StructureDefinition/software-vendor-org",
              "valueReference": {
                "reference": "Organization/07640c5d-87cd-488b-9343-a226c5166539"
              }
            }
          ],
          "software": "PRIME SimpleReport",
          "version": "CommitID",
          "endpoint": "https://simplereport.gov"
        },
        "focus": [
          {
            "reference": "DiagnosticReport/5c5cc8fd-7001-4ac2-9340-541d065eca87"
          }
        ]
      }
    },
    {
      "fullUrl": "Patient/67ee88af-5528-407d-be34-b174f976b5b3",
      "resource": {
        "resourceType": "Patient",
        "id": "67ee88af-5528-407d-be34-b174f976b5b3",
        "name": [
          {
            "extension": [
              {
                "url": "http://hl7.org/fhir/StructureDefinition/data-absent-reason",
                "valueCoding": {
                  "code": "Unknown"
                }
              }
            ]
          }
        ],
        "gender": "unknown"
      }
    },
    {
      "fullUrl": "Organization/07640c5d-87cd-488b-9343-a226c5166539",
      "resource": {
        "resourceType": "Organization",
        "id": "07640c5d-87cd-488b-9343-a226c5166539",
        "name": "SimpleReport"
      }
    },
    {
      "fullUrl": "Observation/5c5cc8fd-7001-4ac2-9340-541d065eca87",
      "resource": {
        "resourceType": "Observation",
        "id": "5c5cc8fd-7001-4ac2-9340-541d065eca87",
        "status": "final",
        "category": [
          {
            "coding": [
              {
                "system": "https://terminology.hl7.org/5.2.0/CodeSystem-observation-category.html",
                "code": "laboratory"
              }
            ]
          }
        ],
        "code": {
          "coding": [
            {
              "system": "http://loinc.org",
              "code": "94534-5"
            }
          ]
        },
        "subject": {
          "reference": "Patient/67ee88af-5528-407d-be34-b174f976b5b3"
        },
        "valueCodeableConcept": {
          "coding": [
            {
              "system": "http://snomed.info/sct",
              "code": "260373001"
            }
          ]
        }
      }
    },
    {
      "fullUrl": "DiagnosticReport/5c5cc8fd-7001-4ac2-9340-541d065eca87",
      "resource": {
        "resourceType": "DiagnosticReport",
        "id": "5c5cc8fd-7001-4ac2-9340-541d065eca87",
        "category": [
          {
            "coding": [
              {
                "system": "https://terminology.hl7.org/5.2.0/CodeSystem-v2-0074.html",
                "code": "LAB"
              }
            ]
          }
        ],
        "code": {
          "coding": [
            {
              "system": "http://loinc.org",
              "code": "94534-5"
            }
          ]
        },
        "subject": {
          "reference": "Patient/67ee88af-5528-407d-be34-b174f976b5b3"
        },
        "effectiveDateTime": "2023-11-15T11:54:00-05:00",
        "result": [
          {
            "reference": "Observation/5c5cc8fd-7001-4ac2-9340-541d065eca87"
          }
        ]
      }
    }
  ]
}
{
  "resourceType": "Bundle",
  "identifier": {
    "value": "5c5cc8fd-7001-4ac2-9340-541d065eca87"
  },
  "type": "message",
  "timestamp": "2023-05-24T19:33:06.472Z",
  "entry": [
    {
      "fullUrl": "MessageHeader/5c5cc8fd-7001-4ac2-9340-541d065eca87",
      "resource": {
        "resourceType": "MessageHeader",
        "id": "5c5cc8fd-7001-4ac2-9340-541d065eca87",
        "meta": {
          "tag": [
            {
              "system": "http://terminology.hl7.org/CodeSystem/v2-0103",
              "code": "P",
              "display": "Production"
            }
          ]
        },
        "eventCoding": {
          "system": "http://terminology.hl7.org/CodeSystem/v2-0003",
          "code": "R01",
          "display": "ORU/ACK - Unsolicited transmission of an observation message"
        },
        "destination": [
          {
            "name": "PRIME ReportStream",
            "endpoint": "https://prime.cdc.gov/api/reports?option=SkipInvalidItems"
          }
        ],
        "source": {
          "extension": [
            {
              "url": "https://reportstream.cdc.gov/fhir/StructureDefinition/software-binary-id",
              "valueString": "CommitID"
            },
            {
              "url": "https://reportstream.cdc.gov/fhir/StructureDefinition/software-install-date",
              "valueInstant": "2023-07-05T14:02:46Z"
            },
            {
              "url": "https://reportstream.cdc.gov/fhir/StructureDefinition/software-vendor-org",
              "valueReference": {
                "reference": "Organization/07640c5d-87cd-488b-9343-a226c5166539"
              }
            }
          ],
          "software": "PRIME SimpleReport",
          "version": "CommitID",
          "endpoint": "https://simplereport.gov"
        },
        "focus": [
          {
            "reference": "DiagnosticReport/5c5cc8fd-7001-4ac2-9340-541d065eca87"
          }
        ]
      }
    },
    {
      "fullUrl": "Patient/a33f2841-eec2-4bfa-bc51-43e5ca76194a",
      "resource": {
        "resourceType": "Patient",
        "id": "a33f2841-eec2-4bfa-bc51-43e5ca76194a",
        "name": [
          {
            "family": "Stark",
            "given": [
              "Tony"
            ]
          }
        ],
        "gender": "male"
      }
    },
    {
      "fullUrl": "Organization/07640c5d-87cd-488b-9343-a226c5166539",
      "resource": {
        "resourceType": "Organization",
        "id": "07640c5d-87cd-488b-9343-a226c5166539",
        "name": "SimpleReport"
      }
    },
    {
      "fullUrl": "Observation/5c5cc8fd-7001-4ac2-9340-541d065eca87",
      "resource": {
        "resourceType": "Observation",
        "id": "5c5cc8fd-7001-4ac2-9340-541d065eca87",
        "status": "final",
        "category": [
          {
            "coding": [
              {
                "system": "https://terminology.hl7.org/5.2.0/CodeSystem-observation-category.html",
                "code": "laboratory"
              }
            ]
          }
        ],
        "code": {
          "coding": [
            {
              "system": "http://loinc.org",
              "code": "97097-0"
            }
          ]
        },
        "subject": {
          "reference": "Patient/a33f2841-eec2-4bfa-bc51-43e5ca76194a"
        },
        "valueCodeableConcept": {
          "coding": [
            {
              "system": "http://snomed.info/sct",
              "code": "260373001"
            }
          ]
        }
      }
    },
    {
      "fullUrl": "DiagnosticReport/5c5cc8fd-7001-4ac2-9340-541d065eca87",
      "resource": {
        "resourceType": "DiagnosticReport",
        "id": "5c5cc8fd-7001-4ac2-9340-541d065eca87",
        "category": [
          {
            "coding": [
              {
                "system": "https://terminology.hl7.org/5.2.0/CodeSystem-v2-0074.html",
                "code": "LAB"
              }
            ]
          }
        ],
        "code": {
          "coding": [
            {
              "system": "http://loinc.org",
              "code": "97097-0"
            }
          ]
        },
        "subject": {
          "reference": "Patient/a33f2841-eec2-4bfa-bc51-43e5ca76194a"
        },
        "effectiveDateTime": "2023-11-27T16:14:00-06:00",
        "result": [
          {
            "reference": "Observation/5c5cc8fd-7001-4ac2-9340-541d065eca87"
          }
        ]
      }
    }
  ]
}